STUDYID,USUBJID,ARM,PARAMCD,PARAM,AVISIT,AVISITN,ADT,ADTN,AVALC,AVAL,ANL01FL
ONCVIZ-001,ONCVIZ-001-04-0001,TREATMENT,OVRLRESP,Overall Response per RECIST 1.1,CYCLE 1 DAY 1,1,2023-06-22,42,SD,3,Y
ONCVIZ-001,ONCVIZ-001-04-0001,TREATMENT,OVRLRESP,Overall Response per RECIST 1.1,CYCLE 2 DAY 1,2,2023-08-03,84,PR,2,Y
ONCVIZ-001,ONCVIZ-001-04-0001,TREATMENT,OVRLRESP,Overall Response per RECIST 1.1,CYCLE 3 DAY 1,3,2023-09-14,126,CR,1,Y
ONCVIZ-001,ONCVIZ-001-04-0001,TREATMENT,OVRLRESP,Overall Response per RECIST 1.1,CYCLE 4 DAY 1,4,2023-10-26,168,SD,3,Y
ONCVIZ-001,ONCVIZ-001-04-0001,TREATMENT,OVRLRESP,Overall Response per RECIST 1.1,CYCLE 5 DAY 1,5,2023-12-07,210,CR,1,Y
ONCVIZ-001,ONCVIZ-001-04-0001,TREATMENT,OVRLRESP,Overall Response per RECIST 1.1,CYCLE 6 DAY 1,6,2024-01-18,252,CR,1,Y
ONCVIZ-001,ONCVIZ-001-04-0001,TREATMENT,OVRLRESP,Overall Response per RECIST 1.1,CYCLE 7 DAY 1,7,2024-02-29,294,CR,1,Y
ONCVIZ-001,ONCVIZ-001-04-0001,TREATMENT,OVRLRESP,Overall Response per RECIST 1.1,CYCLE 8 DAY 1,8,2024-04-11,336,CR,1,Y
ONCVIZ-001,ONCVIZ-001-04-0001,TREATMENT,OVRLRESP,Overall Response per RECIST 1.1,CYCLE 9 DAY 1,9,2024-05-23,378,CR,1,Y
ONCVIZ-001,ONCVIZ-001-04-0001,TREATMENT,OVRLRESP,Overall Response per RECIST 1.1,CYCLE 10 DAY 1,10,2024-07-04,420,CR,1,Y
ONCVIZ-001,ONCVIZ-001-04-0001,TREATMENT,OVRLRESP,Overall Response per RECIST 1.1,CYCLE 11 DAY 1,11,2024-08-15,462,CR,1,Y
ONCVIZ-001,ONCVIZ-001-04-0001,TREATMENT,OVRLRESP,Overall Response per RECIST 1.1,CYCLE 12 DAY 1,12,2024-09-26,504,CR,1,Y
ONCVIZ-001,ONCVIZ-001-04-0001,TREATMENT,OVRLRESP,Overall Response per RECIST 1.1,CYCLE 13 DAY 1,13,2024-11-07,546,CR,1,Y
ONCVIZ-001,ONCVIZ-001-04-0001,TREATMENT,OVRLRESP,Overall Response per RECIST 1.1,CYCLE 14 DAY 1,14,2024-12-19,588,PD,4,Y
ONCVIZ-001,ONCVIZ-001-15-0002,TREATMENT,OVRLRESP,Overall Response per RECIST 1.1,CYCLE 1 DAY 1,1,2023-01-04,42,SD,3,Y
ONCVIZ-001,ONCVIZ-001-15-0002,TREATMENT,OVRLRESP,Overall Response per RECIST 1.1,CYCLE 2 DAY 1,2,2023-02-15,84,SD,3,Y
ONCVIZ-001,ONCVIZ-001-15-0002,TREATMENT,OVRLRESP,Overall Response per RECIST 1.1,CYCLE 3 DAY 1,3,2023-03-29,126,SD,3,Y
ONCVIZ-001,ONCVIZ-001-15-0002,TREATMENT,OVRLRESP,Overall Response per RECIST 1.1,CYCLE 4 DAY 1,4,2023-05-10,168,PD,4,Y
ONCVIZ-001,ONCVIZ-001-02-0003,TREATMENT,OVRLRESP,Overall Response per RECIST 1.1,CYCLE 1 DAY 1,1,2022-11-02,42,PD,4,Y
ONCVIZ-001,ONCVIZ-001-15-0004,TREATMENT,OVRLRESP,Overall Response per RECIST 1.1,CYCLE 1 DAY 1,1,2022-07-13,42,CR,1,Y
ONCVIZ-001,ONCVIZ-001-15-0004,TREATMENT,OVRLRESP,Overall Response per RECIST 1.1,CYCLE 2 DAY 1,2,2022-08-24,84,CR,1,Y
ONCVIZ-001,ONCVIZ-001-15-0004,TREATMENT,OVRLRESP,Overall Response per RECIST 1.1,CYCLE 3 DAY 1,3,2022-10-05,126,CR,1,Y
ONCVIZ-001,ONCVIZ-001-15-0004,TREATMENT,OVRLRESP,Overall Response per RECIST 1.1,CYCLE 4 DAY 1,4,2022-11-16,168,CR,1,Y
ONCVIZ-001,ONCVIZ-001-15-0004,TREATMENT,OVRLRESP,Overall Response per RECIST 1.1,CYCLE 5 DAY 1,5,2022-12-28,210,CR,1,Y
ONCVIZ-001,ONCVIZ-001-15-0004,TREATMENT,OVRLRESP,Overall Response per RECIST 1.1,CYCLE 6 DAY 1,6,2023-02-08,252,CR,1,Y
ONCVIZ-001,ONCVIZ-001-15-0004,TREATMENT,OVRLRESP,Overall Response per RECIST 1.1,CYCLE 7 DAY 1,7,2023-03-22,294,CR,1,Y
ONCVIZ-001,ONCVIZ-001-15-0004,TREATMENT,OVRLRESP,Overall Response per RECIST 1.1,CYCLE 8 DAY 1,8,2023-05-03,336,PD,4,Y
ONCVIZ-001,ONCVIZ-001-19-0005,CONTROL,OVRLRESP,Overall Response per RECIST 1.1,CYCLE 1 DAY 1,1,2023-03-05,42,PD,4,Y
ONCVIZ-001,ONCVIZ-001-03-0006,TREATMENT,OVRLRESP,Overall Response per RECIST 1.1,CYCLE 1 DAY 1,1,2022-12-03,42,SD,3,Y
ONCVIZ-001,ONCVIZ-001-03-0006,TREATMENT,OVRLRESP,Overall Response per RECIST 1.1,CYCLE 2 DAY 1,2,2023-01-14,84,PR,2,Y
ONCVIZ-001,ONCVIZ-001-03-0006,TREATMENT,OVRLRESP,Overall Response per RECIST 1.1,CYCLE 3 DAY 1,3,2023-02-25,126,PR,2,Y
ONCVIZ-001,ONCVIZ-001-03-0006,TREATMENT,OVRLRESP,Overall Response per RECIST 1.1,CYCLE 4 DAY 1,4,2023-04-08,168,PR,2,Y
ONCVIZ-001,ONCVIZ-001-03-0006,TREATMENT,OVRLRESP,Overall Response per RECIST 1.1,CYCLE 5 DAY 1,5,2023-05-20,210,PD,4,Y
ONCVIZ-001,ONCVIZ-001-18-0007,CONTROL,OVRLRESP,Overall Response per RECIST 1.1,CYCLE 1 DAY 1,1,2023-05-30,42,PR,2,Y
ONCVIZ-001,ONCVIZ-001-18-0007,CONTROL,OVRLRESP,Overall Response per RECIST 1.1,CYCLE 2 DAY 1,2,2023-07-11,84,PR,2,Y
ONCVIZ-001,ONCVIZ-001-18-0007,CONTROL,OVRLRESP,Overall Response per RECIST 1.1,CYCLE 3 DAY 1,3,2023-08-22,126,PR,2,Y
ONCVIZ-001,ONCVIZ-001-18-0007,CONTROL,OVRLRESP,Overall Response per RECIST 1.1,CYCLE 4 DAY 1,4,2023-10-03,168,PR,2,Y
ONCVIZ-001,ONCVIZ-001-18-0007,CONTROL,OVRLRESP,Overall Response per RECIST 1.1,CYCLE 5 DAY 1,5,2023-11-14,210,PR,2,Y
ONCVIZ-001,ONCVIZ-001-18-0007,CONTROL,OVRLRESP,Overall Response per RECIST 1.1,CYCLE 6 DAY 1,6,2023-12-26,252,PR,2,Y
ONCVIZ-001,ONCVIZ-001-18-0007,CONTROL,OVRLRESP,Overall Response per RECIST 1.1,CYCLE 7 DAY 1,7,2024-02-06,294,PR,2,Y
ONCVIZ-001,ONCVIZ-001-18-0007,CONTROL,OVRLRESP,Overall Response per RECIST 1.1,CYCLE 8 DAY 1,8,2024-03-19,336,SD,3,Y
ONCVIZ-001,ONCVIZ-001-18-0007,CONTROL,OVRLRESP,Overall Response per RECIST 1.1,CYCLE 9 DAY 1,9,2024-04-30,378,PD,4,Y
ONCVIZ-001,ONCVIZ-001-17-0008,TREATMENT,OVRLRESP,Overall Response per RECIST 1.1,CYCLE 1 DAY 1,1,2022-10-23,42,SD,3,Y
ONCVIZ-001,ONCVIZ-001-17-0008,TREATMENT,OVRLRESP,Overall Response per RECIST 1.1,CYCLE 2 DAY 1,2,2022-12-04,84,PD,4,Y
ONCVIZ-001,ONCVIZ-001-12-0009,TREATMENT,OVRLRESP,Overall Response per RECIST 1.1,CYCLE 1 DAY 1,1,2022-09-03,42,PD,4,Y
ONCVIZ-001,ONCVIZ-001-09-0010,TREATMENT,OVRLRESP,Overall Response per RECIST 1.1,CYCLE 1 DAY 1,1,2022-12-18,42,PR,2,Y
ONCVIZ-001,ONCVIZ-001-09-0010,TREATMENT,OVRLRESP,Overall Response per RECIST 1.1,CYCLE 2 DAY 1,2,2023-01-29,84,SD,3,Y
ONCVIZ-001,ONCVIZ-001-09-0010,TREATMENT,OVRLRESP,Overall Response per RECIST 1.1,CYCLE 3 DAY 1,3,2023-03-12,126,PR,2,Y
ONCVIZ-001,ONCVIZ-001-09-0010,TREATMENT,OVRLRESP,Overall Response per RECIST 1.1,CYCLE 4 DAY 1,4,2023-04-23,168,CR,1,Y
ONCVIZ-001,ONCVIZ-001-09-0010,TREATMENT,OVRLRESP,Overall Response per RECIST 1.1,CYCLE 5 DAY 1,5,2023-06-04,210,CR,1,Y
ONCVIZ-001,ONCVIZ-001-09-0010,TREATMENT,OVRLRESP,Overall Response per RECIST 1.1,CYCLE 6 DAY 1,6,2023-07-16,252,CR,1,Y
ONCVIZ-001,ONCVIZ-001-09-0010,TREATMENT,OVRLRESP,Overall Response per RECIST 1.1,CYCLE 7 DAY 1,7,2023-08-27,294,CR,1,Y
ONCVIZ-001,ONCVIZ-001-09-0010,TREATMENT,OVRLRESP,Overall Response per RECIST 1.1,CYCLE 8 DAY 1,8,2023-10-08,336,CR,1,Y
ONCVIZ-001,ONCVIZ-001-09-0010,TREATMENT,OVRLRESP,Overall Response per RECIST 1.1,CYCLE 9 DAY 1,9,2023-11-19,378,CR,1,Y
ONCVIZ-001,ONCVIZ-001-09-0010,TREATMENT,OVRLRESP,Overall Response per RECIST 1.1,CYCLE 10 DAY 1,10,2023-12-31,420,CR,1,Y
ONCVIZ-001,ONCVIZ-001-09-0010,TREATMENT,OVRLRESP,Overall Response per RECIST 1.1,CYCLE 11 DAY 1,11,2024-02-11,462,CR,1,Y
ONCVIZ-001,ONCVIZ-001-09-0010,TREATMENT,OVRLRESP,Overall Response per RECIST 1.1,CYCLE 12 DAY 1,12,2024-03-24,504,CR,1,Y
ONCVIZ-001,ONCVIZ-001-09-0010,TREATMENT,OVRLRESP,Overall Response per RECIST 1.1,CYCLE 13 DAY 1,13,2024-05-05,546,CR,1,Y
ONCVIZ-001,ONCVIZ-001-09-0010,TREATMENT,OVRLRESP,Overall Response per RECIST 1.1,CYCLE 14 DAY 1,14,2024-06-16,588,CR,1,Y
ONCVIZ-001,ONCVIZ-001-09-0010,TREATMENT,OVRLRESP,Overall Response per RECIST 1.1,CYCLE 15 DAY 1,15,2024-07-28,630,CR,1,Y
ONCVIZ-001,ONCVIZ-001-09-0010,TREATMENT,OVRLRESP,Overall Response per RECIST 1.1,CYCLE 16 DAY 1,16,2024-09-08,672,PR,2,Y
ONCVIZ-001,ONCVIZ-001-09-0010,TREATMENT,OVRLRESP,Overall Response per RECIST 1.1,CYCLE 17 DAY 1,17,2024-10-20,714,PR,2,Y
ONCVIZ-001,ONCVIZ-001-09-0010,TREATMENT,OVRLRESP,Overall Response per RECIST 1.1,CYCLE 18 DAY 1,18,2024-12-01,756,SD,3,Y
ONCVIZ-001,ONCVIZ-001-09-0010,TREATMENT,OVRLRESP,Overall Response per RECIST 1.1,CYCLE 19 DAY 1,19,2025-01-12,798,PD,4,Y
ONCVIZ-001,ONCVIZ-001-11-0011,CONTROL,OVRLRESP,Overall Response per RECIST 1.1,CYCLE 1 DAY 1,1,2023-06-17,42,PR,2,Y
ONCVIZ-001,ONCVIZ-001-14-0012,TREATMENT,OVRLRESP,Overall Response per RECIST 1.1,CYCLE 1 DAY 1,1,2023-06-12,42,PR,2,Y
ONCVIZ-001,ONCVIZ-001-14-0012,TREATMENT,OVRLRESP,Overall Response per RECIST 1.1,CYCLE 2 DAY 1,2,2023-07-24,84,SD,3,Y
ONCVIZ-001,ONCVIZ-001-14-0012,TREATMENT,OVRLRESP,Overall Response per RECIST 1.1,CYCLE 3 DAY 1,3,2023-09-04,126,SD,3,Y
ONCVIZ-001,ONCVIZ-001-14-0012,TREATMENT,OVRLRESP,Overall Response per RECIST 1.1,CYCLE 4 DAY 1,4,2023-10-16,168,PD,4,Y
ONCVIZ-001,ONCVIZ-001-06-0013,TREATMENT,OVRLRESP,Overall Response per RECIST 1.1,CYCLE 1 DAY 1,1,2023-02-01,42,SD,3,Y
ONCVIZ-001,ONCVIZ-001-06-0013,TREATMENT,OVRLRESP,Overall Response per RECIST 1.1,CYCLE 2 DAY 1,2,2023-03-15,84,SD,3,Y
ONCVIZ-001,ONCVIZ-001-06-0013,TREATMENT,OVRLRESP,Overall Response per RECIST 1.1,CYCLE 3 DAY 1,3,2023-04-26,126,PD,4,Y
ONCVIZ-001,ONCVIZ-001-19-0014,TREATMENT,OVRLRESP,Overall Response per RECIST 1.1,CYCLE 1 DAY 1,1,2023-12-11,42,PR,2,Y
ONCVIZ-001,ONCVIZ-001-19-0014,TREATMENT,OVRLRESP,Overall Response per RECIST 1.1,CYCLE 2 DAY 1,2,2024-01-22,84,PD,4,Y
ONCVIZ-001,ONCVIZ-001-08-0015,CONTROL,OVRLRESP,Overall Response per RECIST 1.1,CYCLE 1 DAY 1,1,2023-08-06,42,SD,3,Y
ONCVIZ-001,ONCVIZ-001-08-0015,CONTROL,OVRLRESP,Overall Response per RECIST 1.1,CYCLE 2 DAY 1,2,2023-09-17,84,SD,3,Y
ONCVIZ-001,ONCVIZ-001-08-0015,CONTROL,OVRLRESP,Overall Response per RECIST 1.1,CYCLE 3 DAY 1,3,2023-10-29,126,PR,2,Y
ONCVIZ-001,ONCVIZ-001-08-0015,CONTROL,OVRLRESP,Overall Response per RECIST 1.1,CYCLE 4 DAY 1,4,2023-12-10,168,PR,2,Y
ONCVIZ-001,ONCVIZ-001-08-0015,CONTROL,OVRLRESP,Overall Response per RECIST 1.1,CYCLE 5 DAY 1,5,2024-01-21,210,PR,2,Y
ONCVIZ-001,ONCVIZ-001-08-0015,CONTROL,OVRLRESP,Overall Response per RECIST 1.1,CYCLE 6 DAY 1,6,2024-03-03,252,PR,2,Y
ONCVIZ-001,ONCVIZ-001-08-0015,CONTROL,OVRLRESP,Overall Response per RECIST 1.1,CYCLE 7 DAY 1,7,2024-04-14,294,PD,4,Y
ONCVIZ-001,ONCVIZ-001-18-0016,CONTROL,OVRLRESP,Overall Response per RECIST 1.1,CYCLE 1 DAY 1,1,2023-06-23,42,PD,4,Y
ONCVIZ-001,ONCVIZ-001-18-0017,TREATMENT,OVRLRESP,Overall Response per RECIST 1.1,CYCLE 1 DAY 1,1,2023-05-28,42,PD,4,Y
ONCVIZ-001,ONCVIZ-001-08-0018,TREATMENT,OVRLRESP,Overall Response per RECIST 1.1,CYCLE 1 DAY 1,1,2023-11-20,42,SD,3,Y
ONCVIZ-001,ONCVIZ-001-08-0018,TREATMENT,OVRLRESP,Overall Response per RECIST 1.1,CYCLE 2 DAY 1,2,2024-01-01,84,PD,4,Y
ONCVIZ-001,ONCVIZ-001-15-0019,TREATMENT,OVRLRESP,Overall Response per RECIST 1.1,CYCLE 1 DAY 1,1,2023-02-24,42,SD,3,Y
ONCVIZ-001,ONCVIZ-001-15-0019,TREATMENT,OVRLRESP,Overall Response per RECIST 1.1,CYCLE 2 DAY 1,2,2023-04-07,84,SD,3,Y
ONCVIZ-001,ONCVIZ-001-15-0019,TREATMENT,OVRLRESP,Overall Response per RECIST 1.1,CYCLE 3 DAY 1,3,2023-05-19,126,PD,4,Y
ONCVIZ-001,ONCVIZ-001-14-0020,CONTROL,OVRLRESP,Overall Response per RECIST 1.1,CYCLE 1 DAY 1,1,2022-08-28,42,SD,3,Y
ONCVIZ-001,ONCVIZ-001-14-0020,CONTROL,OVRLRESP,Overall Response per RECIST 1.1,CYCLE 2 DAY 1,2,2022-10-09,84,PR,2,Y
ONCVIZ-001,ONCVIZ-001-19-0021,TREATMENT,OVRLRESP,Overall Response per RECIST 1.1,CYCLE 1 DAY 1,1,2023-09-25,42,PR,2,Y
ONCVIZ-001,ONCVIZ-001-19-0021,TREATMENT,OVRLRESP,Overall Response per RECIST 1.1,CYCLE 2 DAY 1,2,2023-11-06,84,PR,2,Y
ONCVIZ-001,ONCVIZ-001-19-0021,TREATMENT,OVRLRESP,Overall Response per RECIST 1.1,CYCLE 3 DAY 1,3,2023-12-18,126,PD,4,Y
ONCVIZ-001,ONCVIZ-001-09-0022,TREATMENT,OVRLRESP,Overall Response per RECIST 1.1,CYCLE 1 DAY 1,1,2022-12-29,42,SD,3,Y
ONCVIZ-001,ONCVIZ-001-09-0022,TREATMENT,OVRLRESP,Overall Response per RECIST 1.1,CYCLE 2 DAY 1,2,2023-02-09,84,SD,3,Y
ONCVIZ-001,ONCVIZ-001-09-0022,TREATMENT,OVRLRESP,Overall Response per RECIST 1.1,CYCLE 3 DAY 1,3,2023-03-23,126,CR,1,Y
ONCVIZ-001,ONCVIZ-001-10-0023,CONTROL,OVRLRESP,Overall Response per RECIST 1.1,CYCLE 1 DAY 1,1,2023-11-28,42,PD,4,Y
ONCVIZ-001,ONCVIZ-001-16-0024,TREATMENT,OVRLRESP,Overall Response per RECIST 1.1,CYCLE 1 DAY 1,1,2023-11-21,42,SD,3,Y
ONCVIZ-001,ONCVIZ-001-16-0024,TREATMENT,OVRLRESP,Overall Response per RECIST 1.1,CYCLE 2 DAY 1,2,2024-01-02,84,SD,3,Y
ONCVIZ-001,ONCVIZ-001-16-0024,TREATMENT,OVRLRESP,Overall Response per RECIST 1.1,CYCLE 3 DAY 1,3,2024-02-13,126,SD,3,Y
ONCVIZ-001,ONCVIZ-001-16-0024,TREATMENT,OVRLRESP,Overall Response per RECIST 1.1,CYCLE 4 DAY 1,4,2024-03-26,168,SD,3,Y
ONCVIZ-001,ONCVIZ-001-16-0024,TREATMENT,OVRLRESP,Overall Response per RECIST 1.1,CYCLE 5 DAY 1,5,2024-05-07,210,PR,2,Y
ONCVIZ-001,ONCVIZ-001-16-0024,TREATMENT,OVRLRESP,Overall Response per RECIST 1.1,CYCLE 6 DAY 1,6,2024-06-18,252,PR,2,Y
ONCVIZ-001,ONCVIZ-001-16-0024,TREATMENT,OVRLRESP,Overall Response per RECIST 1.1,CYCLE 7 DAY 1,7,2024-07-30,294,PR,2,Y
ONCVIZ-001,ONCVIZ-001-16-0024,TREATMENT,OVRLRESP,Overall Response per RECIST 1.1,CYCLE 8 DAY 1,8,2024-09-10,336,PR,2,Y
ONCVIZ-001,ONCVIZ-001-16-0024,TREATMENT,OVRLRESP,Overall Response per RECIST 1.1,CYCLE 9 DAY 1,9,2024-10-22,378,CR,1,Y
ONCVIZ-001,ONCVIZ-001-16-0024,TREATMENT,OVRLRESP,Overall Response per RECIST 1.1,CYCLE 10 DAY 1,10,2024-12-03,420,CR,1,Y
ONCVIZ-001,ONCVIZ-001-16-0024,TREATMENT,OVRLRESP,Overall Response per RECIST 1.1,CYCLE 11 DAY 1,11,2025-01-14,462,CR,1,Y
ONCVIZ-001,ONCVIZ-001-16-0024,TREATMENT,OVRLRESP,Overall Response per RECIST 1.1,CYCLE 12 DAY 1,12,2025-02-25,504,SD,3,Y
ONCVIZ-001,ONCVIZ-001-16-0024,TREATMENT,OVRLRESP,Overall Response per RECIST 1.1,CYCLE 13 DAY 1,13,2025-04-08,546,SD,3,Y
ONCVIZ-001,ONCVIZ-001-16-0024,TREATMENT,OVRLRESP,Overall Response per RECIST 1.1,CYCLE 14 DAY 1,14,2025-05-20,588,SD,3,Y
ONCVIZ-001,ONCVIZ-001-16-0024,TREATMENT,OVRLRESP,Overall Response per RECIST 1.1,CYCLE 15 DAY 1,15,2025-07-01,630,SD,3,Y
ONCVIZ-001,ONCVIZ-001-16-0024,TREATMENT,OVRLRESP,Overall Response per RECIST 1.1,CYCLE 16 DAY 1,16,2025-08-12,672,PD,4,Y
ONCVIZ-001,ONCVIZ-001-01-0025,TREATMENT,OVRLRESP,Overall Response per RECIST 1.1,CYCLE 1 DAY 1,1,2023-12-14,42,PR,2,Y
ONCVIZ-001,ONCVIZ-001-01-0025,TREATMENT,OVRLRESP,Overall Response per RECIST 1.1,CYCLE 2 DAY 1,2,2024-01-25,84,PD,4,Y
ONCVIZ-001,ONCVIZ-001-16-0026,CONTROL,OVRLRESP,Overall Response per RECIST 1.1,CYCLE 1 DAY 1,1,2023-06-17,42,PR,2,Y
ONCVIZ-001,ONCVIZ-001-16-0026,CONTROL,OVRLRESP,Overall Response per RECIST 1.1,CYCLE 2 DAY 1,2,2023-07-29,84,PD,4,Y
ONCVIZ-001,ONCVIZ-001-14-0027,CONTROL,OVRLRESP,Overall Response per RECIST 1.1,CYCLE 1 DAY 1,1,2022-10-23,42,PR,2,Y
ONCVIZ-001,ONCVIZ-001-14-0028,TREATMENT,OVRLRESP,Overall Response per RECIST 1.1,CYCLE 1 DAY 1,1,2023-03-26,42,PD,4,Y
ONCVIZ-001,ONCVIZ-001-12-0029,TREATMENT,OVRLRESP,Overall Response per RECIST 1.1,CYCLE 1 DAY 1,1,2022-10-20,42,CR,1,Y
ONCVIZ-001,ONCVIZ-001-12-0029,TREATMENT,OVRLRESP,Overall Response per RECIST 1.1,CYCLE 2 DAY 1,2,2022-12-01,84,CR,1,Y
ONCVIZ-001,ONCVIZ-001-12-0029,TREATMENT,OVRLRESP,Overall Response per RECIST 1.1,CYCLE 3 DAY 1,3,2023-01-12,126,CR,1,Y
ONCVIZ-001,ONCVIZ-001-12-0029,TREATMENT,OVRLRESP,Overall Response per RECIST 1.1,CYCLE 4 DAY 1,4,2023-02-23,168,CR,1,Y
ONCVIZ-001,ONCVIZ-001-12-0029,TREATMENT,OVRLRESP,Overall Response per RECIST 1.1,CYCLE 5 DAY 1,5,2023-04-06,210,CR,1,Y
ONCVIZ-001,ONCVIZ-001-12-0029,TREATMENT,OVRLRESP,Overall Response per RECIST 1.1,CYCLE 6 DAY 1,6,2023-05-18,252,SD,3,Y
ONCVIZ-001,ONCVIZ-001-12-0029,TREATMENT,OVRLRESP,Overall Response per RECIST 1.1,CYCLE 7 DAY 1,7,2023-06-29,294,PD,4,Y
ONCVIZ-001,ONCVIZ-001-03-0030,CONTROL,OVRLRESP,Overall Response per RECIST 1.1,CYCLE 1 DAY 1,1,2023-07-22,42,SD,3,Y
ONCVIZ-001,ONCVIZ-001-03-0030,CONTROL,OVRLRESP,Overall Response per RECIST 1.1,CYCLE 2 DAY 1,2,2023-09-02,84,CR,1,Y
ONCVIZ-001,ONCVIZ-001-03-0030,CONTROL,OVRLRESP,Overall Response per RECIST 1.1,CYCLE 3 DAY 1,3,2023-10-14,126,CR,1,Y
ONCVIZ-001,ONCVIZ-001-03-0030,CONTROL,OVRLRESP,Overall Response per RECIST 1.1,CYCLE 4 DAY 1,4,2023-11-25,168,CR,1,Y
ONCVIZ-001,ONCVIZ-001-03-0030,CONTROL,OVRLRESP,Overall Response per RECIST 1.1,CYCLE 5 DAY 1,5,2024-01-06,210,CR,1,Y
ONCVIZ-001,ONCVIZ-001-03-0030,CONTROL,OVRLRESP,Overall Response per RECIST 1.1,CYCLE 6 DAY 1,6,2024-02-17,252,CR,1,Y
ONCVIZ-001,ONCVIZ-001-03-0030,CONTROL,OVRLRESP,Overall Response per RECIST 1.1,CYCLE 7 DAY 1,7,2024-03-30,294,CR,1,Y
ONCVIZ-001,ONCVIZ-001-03-0030,CONTROL,OVRLRESP,Overall Response per RECIST 1.1,CYCLE 8 DAY 1,8,2024-05-11,336,CR,1,Y
ONCVIZ-001,ONCVIZ-001-03-0030,CONTROL,OVRLRESP,Overall Response per RECIST 1.1,CYCLE 9 DAY 1,9,2024-06-22,378,CR,1,Y
ONCVIZ-001,ONCVIZ-001-03-0030,CONTROL,OVRLRESP,Overall Response per RECIST 1.1,CYCLE 10 DAY 1,10,2024-08-03,420,CR,1,Y
ONCVIZ-001,ONCVIZ-001-03-0030,CONTROL,OVRLRESP,Overall Response per RECIST 1.1,CYCLE 11 DAY 1,11,2024-09-14,462,CR,1,Y
ONCVIZ-001,ONCVIZ-001-03-0030,CONTROL,OVRLRESP,Overall Response per RECIST 1.1,CYCLE 12 DAY 1,12,2024-10-26,504,CR,1,Y
ONCVIZ-001,ONCVIZ-001-03-0030,CONTROL,OVRLRESP,Overall Response per RECIST 1.1,CYCLE 13 DAY 1,13,2024-12-07,546,PR,2,Y
ONCVIZ-001,ONCVIZ-001-03-0030,CONTROL,OVRLRESP,Overall Response per RECIST 1.1,CYCLE 14 DAY 1,14,2025-01-18,588,PR,2,Y
ONCVIZ-001,ONCVIZ-001-03-0030,CONTROL,OVRLRESP,Overall Response per RECIST 1.1,CYCLE 15 DAY 1,15,2025-03-01,630,PD,4,Y
ONCVIZ-001,ONCVIZ-001-09-0031,TREATMENT,OVRLRESP,Overall Response per RECIST 1.1,CYCLE 1 DAY 1,1,2023-09-15,42,CR,1,Y
ONCVIZ-001,ONCVIZ-001-09-0032,TREATMENT,OVRLRESP,Overall Response per RECIST 1.1,CYCLE 1 DAY 1,1,2023-02-10,42,PR,2,Y
ONCVIZ-001,ONCVIZ-001-09-0032,TREATMENT,OVRLRESP,Overall Response per RECIST 1.1,CYCLE 2 DAY 1,2,2023-03-24,84,PR,2,Y
ONCVIZ-001,ONCVIZ-001-09-0032,TREATMENT,OVRLRESP,Overall Response per RECIST 1.1,CYCLE 3 DAY 1,3,2023-05-05,126,PR,2,Y
ONCVIZ-001,ONCVIZ-001-09-0032,TREATMENT,OVRLRESP,Overall Response per RECIST 1.1,CYCLE 4 DAY 1,4,2023-06-16,168,PR,2,Y
ONCVIZ-001,ONCVIZ-001-09-0032,TREATMENT,OVRLRESP,Overall Response per RECIST 1.1,CYCLE 5 DAY 1,5,2023-07-28,210,PR,2,Y
ONCVIZ-001,ONCVIZ-001-09-0032,TREATMENT,OVRLRESP,Overall Response per RECIST 1.1,CYCLE 6 DAY 1,6,2023-09-08,252,SD,3,Y
ONCVIZ-001,ONCVIZ-001-09-0032,TREATMENT,OVRLRESP,Overall Response per RECIST 1.1,CYCLE 7 DAY 1,7,2023-10-20,294,SD,3,Y
ONCVIZ-001,ONCVIZ-001-09-0032,TREATMENT,OVRLRESP,Overall Response per RECIST 1.1,CYCLE 8 DAY 1,8,2023-12-01,336,PD,4,Y
ONCVIZ-001,ONCVIZ-001-05-0033,CONTROL,OVRLRESP,Overall Response per RECIST 1.1,CYCLE 1 DAY 1,1,2023-12-28,42,PD,4,Y
ONCVIZ-001,ONCVIZ-001-16-0034,CONTROL,OVRLRESP,Overall Response per RECIST 1.1,CYCLE 1 DAY 1,1,2023-08-25,42,PD,4,Y
ONCVIZ-001,ONCVIZ-001-16-0035,TREATMENT,OVRLRESP,Overall Response per RECIST 1.1,CYCLE 1 DAY 1,1,2023-07-24,42,SD,3,Y
ONCVIZ-001,ONCVIZ-001-16-0035,TREATMENT,OVRLRESP,Overall Response per RECIST 1.1,CYCLE 2 DAY 1,2,2023-09-04,84,SD,3,Y
ONCVIZ-001,ONCVIZ-001-16-0035,TREATMENT,OVRLRESP,Overall Response per RECIST 1.1,CYCLE 3 DAY 1,3,2023-10-16,126,SD,3,Y
ONCVIZ-001,ONCVIZ-001-16-0035,TREATMENT,OVRLRESP,Overall Response per RECIST 1.1,CYCLE 4 DAY 1,4,2023-11-27,168,SD,3,Y
ONCVIZ-001,ONCVIZ-001-16-0035,TREATMENT,OVRLRESP,Overall Response per RECIST 1.1,CYCLE 5 DAY 1,5,2024-01-08,210,SD,3,Y
ONCVIZ-001,ONCVIZ-001-16-0035,TREATMENT,OVRLRESP,Overall Response per RECIST 1.1,CYCLE 6 DAY 1,6,2024-02-19,252,SD,3,Y
ONCVIZ-001,ONCVIZ-001-16-0035,TREATMENT,OVRLRESP,Overall Response per RECIST 1.1,CYCLE 7 DAY 1,7,2024-04-01,294,SD,3,Y
ONCVIZ-001,ONCVIZ-001-16-0035,TREATMENT,OVRLRESP,Overall Response per RECIST 1.1,CYCLE 8 DAY 1,8,2024-05-13,336,PD,4,Y
ONCVIZ-001,ONCVIZ-001-20-0036,TREATMENT,OVRLRESP,Overall Response per RECIST 1.1,CYCLE 1 DAY 1,1,2022-10-07,42,PR,2,Y
ONCVIZ-001,ONCVIZ-001-20-0036,TREATMENT,OVRLRESP,Overall Response per RECIST 1.1,CYCLE 2 DAY 1,2,2022-11-18,84,PR,2,Y
ONCVIZ-001,ONCVIZ-001-20-0036,TREATMENT,OVRLRESP,Overall Response per RECIST 1.1,CYCLE 3 DAY 1,3,2022-12-30,126,PR,2,Y
ONCVIZ-001,ONCVIZ-001-20-0036,TREATMENT,OVRLRESP,Overall Response per RECIST 1.1,CYCLE 4 DAY 1,4,2023-02-10,168,SD,3,Y
ONCVIZ-001,ONCVIZ-001-14-0037,TREATMENT,OVRLRESP,Overall Response per RECIST 1.1,CYCLE 1 DAY 1,1,2023-03-05,42,SD,3,Y
ONCVIZ-001,ONCVIZ-001-14-0037,TREATMENT,OVRLRESP,Overall Response per RECIST 1.1,CYCLE 2 DAY 1,2,2023-04-16,84,SD,3,Y
ONCVIZ-001,ONCVIZ-001-14-0037,TREATMENT,OVRLRESP,Overall Response per RECIST 1.1,CYCLE 3 DAY 1,3,2023-05-28,126,CR,1,Y
ONCVIZ-001,ONCVIZ-001-03-0038,CONTROL,OVRLRESP,Overall Response per RECIST 1.1,CYCLE 1 DAY 1,1,2023-12-17,42,SD,3,Y
ONCVIZ-001,ONCVIZ-001-03-0038,CONTROL,OVRLRESP,Overall Response per RECIST 1.1,CYCLE 2 DAY 1,2,2024-01-28,84,PR,2,Y
ONCVIZ-001,ONCVIZ-001-03-0038,CONTROL,OVRLRESP,Overall Response per RECIST 1.1,CYCLE 3 DAY 1,3,2024-03-10,126,SD,3,Y
ONCVIZ-001,ONCVIZ-001-03-0038,CONTROL,OVRLRESP,Overall Response per RECIST 1.1,CYCLE 4 DAY 1,4,2024-04-21,168,SD,3,Y
ONCVIZ-001,ONCVIZ-001-03-0038,CONTROL,OVRLRESP,Overall Response per RECIST 1.1,CYCLE 5 DAY 1,5,2024-06-02,210,PR,2,Y
ONCVIZ-001,ONCVIZ-001-03-0038,CONTROL,OVRLRESP,Overall Response per RECIST 1.1,CYCLE 6 DAY 1,6,2024-07-14,252,PR,2,Y
ONCVIZ-001,ONCVIZ-001-03-0038,CONTROL,OVRLRESP,Overall Response per RECIST 1.1,CYCLE 7 DAY 1,7,2024-08-25,294,PR,2,Y
ONCVIZ-001,ONCVIZ-001-03-0038,CONTROL,OVRLRESP,Overall Response per RECIST 1.1,CYCLE 8 DAY 1,8,2024-10-06,336,PD,4,Y
ONCVIZ-001,ONCVIZ-001-05-0039,TREATMENT,OVRLRESP,Overall Response per RECIST 1.1,CYCLE 1 DAY 1,1,2023-10-28,42,PD,4,Y
ONCVIZ-001,ONCVIZ-001-13-0040,TREATMENT,OVRLRESP,Overall Response per RECIST 1.1,CYCLE 1 DAY 1,1,2023-09-04,42,PR,2,Y
ONCVIZ-001,ONCVIZ-001-13-0040,TREATMENT,OVRLRESP,Overall Response per RECIST 1.1,CYCLE 2 DAY 1,2,2023-10-16,84,PR,2,Y
ONCVIZ-001,ONCVIZ-001-13-0040,TREATMENT,OVRLRESP,Overall Response per RECIST 1.1,CYCLE 3 DAY 1,3,2023-11-27,126,SD,3,Y
ONCVIZ-001,ONCVIZ-001-13-0040,TREATMENT,OVRLRESP,Overall Response per RECIST 1.1,CYCLE 4 DAY 1,4,2024-01-08,168,PD,4,Y
ONCVIZ-001,ONCVIZ-001-18-0041,CONTROL,OVRLRESP,Overall Response per RECIST 1.1,CYCLE 1 DAY 1,1,2023-09-19,42,SD,3,Y
ONCVIZ-001,ONCVIZ-001-18-0041,CONTROL,OVRLRESP,Overall Response per RECIST 1.1,CYCLE 2 DAY 1,2,2023-10-31,84,SD,3,Y
ONCVIZ-001,ONCVIZ-001-18-0041,CONTROL,OVRLRESP,Overall Response per RECIST 1.1,CYCLE 3 DAY 1,3,2023-12-12,126,PD,4,Y
ONCVIZ-001,ONCVIZ-001-05-0042,TREATMENT,OVRLRESP,Overall Response per RECIST 1.1,CYCLE 1 DAY 1,1,2023-10-15,42,CR,1,Y
ONCVIZ-001,ONCVIZ-001-05-0042,TREATMENT,OVRLRESP,Overall Response per RECIST 1.1,CYCLE 2 DAY 1,2,2023-11-26,84,CR,1,Y
ONCVIZ-001,ONCVIZ-001-05-0042,TREATMENT,OVRLRESP,Overall Response per RECIST 1.1,CYCLE 3 DAY 1,3,2024-01-07,126,CR,1,Y
ONCVIZ-001,ONCVIZ-001-05-0042,TREATMENT,OVRLRESP,Overall Response per RECIST 1.1,CYCLE 4 DAY 1,4,2024-02-18,168,CR,1,Y
ONCVIZ-001,ONCVIZ-001-05-0042,TREATMENT,OVRLRESP,Overall Response per RECIST 1.1,CYCLE 5 DAY 1,5,2024-03-31,210,PR,2,Y
ONCVIZ-001,ONCVIZ-001-05-0042,TREATMENT,OVRLRESP,Overall Response per RECIST 1.1,CYCLE 6 DAY 1,6,2024-05-12,252,PR,2,Y
ONCVIZ-001,ONCVIZ-001-05-0042,TREATMENT,OVRLRESP,Overall Response per RECIST 1.1,CYCLE 7 DAY 1,7,2024-06-23,294,PR,2,Y
ONCVIZ-001,ONCVIZ-001-05-0042,TREATMENT,OVRLRESP,Overall Response per RECIST 1.1,CYCLE 8 DAY 1,8,2024-08-04,336,PR,2,Y
ONCVIZ-001,ONCVIZ-001-05-0042,TREATMENT,OVRLRESP,Overall Response per RECIST 1.1,CYCLE 9 DAY 1,9,2024-09-15,378,PR,2,Y
ONCVIZ-001,ONCVIZ-001-05-0042,TREATMENT,OVRLRESP,Overall Response per RECIST 1.1,CYCLE 10 DAY 1,10,2024-10-27,420,PD,4,Y
ONCVIZ-001,ONCVIZ-001-19-0043,CONTROL,OVRLRESP,Overall Response per RECIST 1.1,CYCLE 1 DAY 1,1,2023-02-25,42,PD,4,Y
ONCVIZ-001,ONCVIZ-001-13-0044,CONTROL,OVRLRESP,Overall Response per RECIST 1.1,CYCLE 1 DAY 1,1,2022-08-30,42,SD,3,Y
ONCVIZ-001,ONCVIZ-001-13-0044,CONTROL,OVRLRESP,Overall Response per RECIST 1.1,CYCLE 2 DAY 1,2,2022-10-11,84,PD,4,Y
ONCVIZ-001,ONCVIZ-001-17-0045,TREATMENT,OVRLRESP,Overall Response per RECIST 1.1,CYCLE 1 DAY 1,1,2022-10-27,42,SD,3,Y
ONCVIZ-001,ONCVIZ-001-17-0045,TREATMENT,OVRLRESP,Overall Response per RECIST 1.1,CYCLE 2 DAY 1,2,2022-12-08,84,PD,4,Y
ONCVIZ-001,ONCVIZ-001-06-0046,CONTROL,OVRLRESP,Overall Response per RECIST 1.1,CYCLE 1 DAY 1,1,2023-04-18,42,PD,4,Y
ONCVIZ-001,ONCVIZ-001-06-0047,TREATMENT,OVRLRESP,Overall Response per RECIST 1.1,CYCLE 1 DAY 1,1,2022-09-09,42,PR,2,Y
ONCVIZ-001,ONCVIZ-001-06-0047,TREATMENT,OVRLRESP,Overall Response per RECIST 1.1,CYCLE 2 DAY 1,2,2022-10-21,84,SD,3,Y
ONCVIZ-001,ONCVIZ-001-06-0047,TREATMENT,OVRLRESP,Overall Response per RECIST 1.1,CYCLE 3 DAY 1,3,2022-12-02,126,PD,4,Y
ONCVIZ-001,ONCVIZ-001-05-0048,CONTROL,OVRLRESP,Overall Response per RECIST 1.1,CYCLE 1 DAY 1,1,2022-11-10,42,SD,3,Y
ONCVIZ-001,ONCVIZ-001-05-0048,CONTROL,OVRLRESP,Overall Response per RECIST 1.1,CYCLE 2 DAY 1,2,2022-12-22,84,PD,4,Y
ONCVIZ-001,ONCVIZ-001-05-0049,CONTROL,OVRLRESP,Overall Response per RECIST 1.1,CYCLE 1 DAY 1,1,2023-07-25,42,SD,3,Y
ONCVIZ-001,ONCVIZ-001-05-0049,CONTROL,OVRLRESP,Overall Response per RECIST 1.1,CYCLE 2 DAY 1,2,2023-09-05,84,PD,4,Y
ONCVIZ-001,ONCVIZ-001-16-0050,TREATMENT,OVRLRESP,Overall Response per RECIST 1.1,CYCLE 1 DAY 1,1,2023-12-26,42,PR,2,Y
ONCVIZ-001,ONCVIZ-001-16-0050,TREATMENT,OVRLRESP,Overall Response per RECIST 1.1,CYCLE 2 DAY 1,2,2024-02-06,84,SD,3,Y
ONCVIZ-001,ONCVIZ-001-16-0050,TREATMENT,OVRLRESP,Overall Response per RECIST 1.1,CYCLE 3 DAY 1,3,2024-03-19,126,CR,1,Y
ONCVIZ-001,ONCVIZ-001-16-0050,TREATMENT,OVRLRESP,Overall Response per RECIST 1.1,CYCLE 4 DAY 1,4,2024-04-30,168,CR,1,Y
ONCVIZ-001,ONCVIZ-001-16-0050,TREATMENT,OVRLRESP,Overall Response per RECIST 1.1,CYCLE 5 DAY 1,5,2024-06-11,210,CR,1,Y
ONCVIZ-001,ONCVIZ-001-16-0050,TREATMENT,OVRLRESP,Overall Response per RECIST 1.1,CYCLE 6 DAY 1,6,2024-07-23,252,CR,1,Y
ONCVIZ-001,ONCVIZ-001-16-0050,TREATMENT,OVRLRESP,Overall Response per RECIST 1.1,CYCLE 7 DAY 1,7,2024-09-03,294,CR,1,Y
ONCVIZ-001,ONCVIZ-001-16-0050,TREATMENT,OVRLRESP,Overall Response per RECIST 1.1,CYCLE 8 DAY 1,8,2024-10-15,336,CR,1,Y
ONCVIZ-001,ONCVIZ-001-16-0050,TREATMENT,OVRLRESP,Overall Response per RECIST 1.1,CYCLE 9 DAY 1,9,2024-11-26,378,CR,1,Y
ONCVIZ-001,ONCVIZ-001-16-0050,TREATMENT,OVRLRESP,Overall Response per RECIST 1.1,CYCLE 10 DAY 1,10,2025-01-07,420,CR,1,Y
ONCVIZ-001,ONCVIZ-001-16-0050,TREATMENT,OVRLRESP,Overall Response per RECIST 1.1,CYCLE 11 DAY 1,11,2025-02-18,462,PR,2,Y
ONCVIZ-001,ONCVIZ-001-16-0050,TREATMENT,OVRLRESP,Overall Response per RECIST 1.1,CYCLE 12 DAY 1,12,2025-04-01,504,PR,2,Y
ONCVIZ-001,ONCVIZ-001-16-0050,TREATMENT,OVRLRESP,Overall Response per RECIST 1.1,CYCLE 13 DAY 1,13,2025-05-13,546,PR,2,Y
ONCVIZ-001,ONCVIZ-001-16-0050,TREATMENT,OVRLRESP,Overall Response per RECIST 1.1,CYCLE 14 DAY 1,14,2025-06-24,588,PR,2,Y
ONCVIZ-001,ONCVIZ-001-16-0050,TREATMENT,OVRLRESP,Overall Response per RECIST 1.1,CYCLE 15 DAY 1,15,2025-08-05,630,PR,2,Y
ONCVIZ-001,ONCVIZ-001-16-0050,TREATMENT,OVRLRESP,Overall Response per RECIST 1.1,CYCLE 16 DAY 1,16,2025-09-16,672,SD,3,Y
ONCVIZ-001,ONCVIZ-001-16-0050,TREATMENT,OVRLRESP,Overall Response per RECIST 1.1,CYCLE 17 DAY 1,17,2025-10-28,714,PR,2,Y
ONCVIZ-001,ONCVIZ-001-16-0050,TREATMENT,OVRLRESP,Overall Response per RECIST 1.1,CYCLE 18 DAY 1,18,2025-12-09,756,PR,2,Y
ONCVIZ-001,ONCVIZ-001-16-0050,TREATMENT,OVRLRESP,Overall Response per RECIST 1.1,CYCLE 19 DAY 1,19,2026-01-20,798,PR,2,Y
ONCVIZ-001,ONCVIZ-001-16-0050,TREATMENT,OVRLRESP,Overall Response per RECIST 1.1,CYCLE 20 DAY 1,20,2026-03-03,840,SD,3,Y
ONCVIZ-001,ONCVIZ-001-10-0051,TREATMENT,OVRLRESP,Overall Response per RECIST 1.1,CYCLE 1 DAY 1,1,2023-05-18,42,SD,3,Y
ONCVIZ-001,ONCVIZ-001-10-0051,TREATMENT,OVRLRESP,Overall Response per RECIST 1.1,CYCLE 2 DAY 1,2,2023-06-29,84,SD,3,Y
ONCVIZ-001,ONCVIZ-001-10-0051,TREATMENT,OVRLRESP,Overall Response per RECIST 1.1,CYCLE 3 DAY 1,3,2023-08-10,126,SD,3,Y
ONCVIZ-001,ONCVIZ-001-10-0051,TREATMENT,OVRLRESP,Overall Response per RECIST 1.1,CYCLE 4 DAY 1,4,2023-09-21,168,PD,4,Y
ONCVIZ-001,ONCVIZ-001-14-0052,TREATMENT,OVRLRESP,Overall Response per RECIST 1.1,CYCLE 1 DAY 1,1,2023-05-29,42,PR,2,Y
ONCVIZ-001,ONCVIZ-001-14-0052,TREATMENT,OVRLRESP,Overall Response per RECIST 1.1,CYCLE 2 DAY 1,2,2023-07-10,84,SD,3,Y
ONCVIZ-001,ONCVIZ-001-14-0052,TREATMENT,OVRLRESP,Overall Response per RECIST 1.1,CYCLE 3 DAY 1,3,2023-08-21,126,SD,3,Y
ONCVIZ-001,ONCVIZ-001-14-0052,TREATMENT,OVRLRESP,Overall Response per RECIST 1.1,CYCLE 4 DAY 1,4,2023-10-02,168,SD,3,Y
ONCVIZ-001,ONCVIZ-001-14-0052,TREATMENT,OVRLRESP,Overall Response per RECIST 1.1,CYCLE 5 DAY 1,5,2023-11-13,210,SD,3,Y
ONCVIZ-001,ONCVIZ-001-14-0052,TREATMENT,OVRLRESP,Overall Response per RECIST 1.1,CYCLE 6 DAY 1,6,2023-12-25,252,PD,4,Y
ONCVIZ-001,ONCVIZ-001-03-0053,CONTROL,OVRLRESP,Overall Response per RECIST 1.1,CYCLE 1 DAY 1,1,2023-04-25,42,SD,3,Y
ONCVIZ-001,ONCVIZ-001-03-0053,CONTROL,OVRLRESP,Overall Response per RECIST 1.1,CYCLE 2 DAY 1,2,2023-06-06,84,SD,3,Y
ONCVIZ-001,ONCVIZ-001-03-0053,CONTROL,OVRLRESP,Overall Response per RECIST 1.1,CYCLE 3 DAY 1,3,2023-07-18,126,PD,4,Y
ONCVIZ-001,ONCVIZ-001-11-0054,TREATMENT,OVRLRESP,Overall Response per RECIST 1.1,CYCLE 1 DAY 1,1,2023-11-11,42,PR,2,Y
ONCVIZ-001,ONCVIZ-001-11-0054,TREATMENT,OVRLRESP,Overall Response per RECIST 1.1,CYCLE 2 DAY 1,2,2023-12-23,84,PR,2,Y
ONCVIZ-001,ONCVIZ-001-11-0054,TREATMENT,OVRLRESP,Overall Response per RECIST 1.1,CYCLE 3 DAY 1,3,2024-02-03,126,SD,3,Y
ONCVIZ-001,ONCVIZ-001-11-0054,TREATMENT,OVRLRESP,Overall Response per RECIST 1.1,CYCLE 4 DAY 1,4,2024-03-16,168,PR,2,Y
ONCVIZ-001,ONCVIZ-001-11-0054,TREATMENT,OVRLRESP,Overall Response per RECIST 1.1,CYCLE 5 DAY 1,5,2024-04-27,210,PR,2,Y
ONCVIZ-001,ONCVIZ-001-11-0054,TREATMENT,OVRLRESP,Overall Response per RECIST 1.1,CYCLE 6 DAY 1,6,2024-06-08,252,PR,2,Y
ONCVIZ-001,ONCVIZ-001-01-0055,TREATMENT,OVRLRESP,Overall Response per RECIST 1.1,CYCLE 1 DAY 1,1,2022-09-14,42,SD,3,Y
ONCVIZ-001,ONCVIZ-001-01-0055,TREATMENT,OVRLRESP,Overall Response per RECIST 1.1,CYCLE 2 DAY 1,2,2022-10-26,84,PD,4,Y
ONCVIZ-001,ONCVIZ-001-06-0056,TREATMENT,OVRLRESP,Overall Response per RECIST 1.1,CYCLE 1 DAY 1,1,2023-08-05,42,CR,1,Y
ONCVIZ-001,ONCVIZ-001-06-0056,TREATMENT,OVRLRESP,Overall Response per RECIST 1.1,CYCLE 2 DAY 1,2,2023-09-16,84,CR,1,Y
ONCVIZ-001,ONCVIZ-001-06-0056,TREATMENT,OVRLRESP,Overall Response per RECIST 1.1,CYCLE 3 DAY 1,3,2023-10-28,126,CR,1,Y
ONCVIZ-001,ONCVIZ-001-06-0056,TREATMENT,OVRLRESP,Overall Response per RECIST 1.1,CYCLE 4 DAY 1,4,2023-12-09,168,CR,1,Y
ONCVIZ-001,ONCVIZ-001-06-0056,TREATMENT,OVRLRESP,Overall Response per RECIST 1.1,CYCLE 5 DAY 1,5,2024-01-20,210,CR,1,Y
ONCVIZ-001,ONCVIZ-001-06-0056,TREATMENT,OVRLRESP,Overall Response per RECIST 1.1,CYCLE 6 DAY 1,6,2024-03-02,252,CR,1,Y
ONCVIZ-001,ONCVIZ-001-06-0056,TREATMENT,OVRLRESP,Overall Response per RECIST 1.1,CYCLE 7 DAY 1,7,2024-04-13,294,CR,1,Y
ONCVIZ-001,ONCVIZ-001-06-0056,TREATMENT,OVRLRESP,Overall Response per RECIST 1.1,CYCLE 8 DAY 1,8,2024-05-25,336,SD,3,Y
ONCVIZ-001,ONCVIZ-001-06-0056,TREATMENT,OVRLRESP,Overall Response per RECIST 1.1,CYCLE 9 DAY 1,9,2024-07-06,378,SD,3,Y
ONCVIZ-001,ONCVIZ-001-06-0056,TREATMENT,OVRLRESP,Overall Response per RECIST 1.1,CYCLE 10 DAY 1,10,2024-08-17,420,PD,4,Y
ONCVIZ-001,ONCVIZ-001-03-0057,TREATMENT,OVRLRESP,Overall Response per RECIST 1.1,CYCLE 1 DAY 1,1,2023-09-02,42,PD,4,Y
ONCVIZ-001,ONCVIZ-001-02-0058,CONTROL,OVRLRESP,Overall Response per RECIST 1.1,CYCLE 1 DAY 1,1,2023-12-31,42,SD,3,Y
ONCVIZ-001,ONCVIZ-001-15-0059,TREATMENT,OVRLRESP,Overall Response per RECIST 1.1,CYCLE 1 DAY 1,1,2023-04-06,42,PR,2,Y
ONCVIZ-001,ONCVIZ-001-15-0059,TREATMENT,OVRLRESP,Overall Response per RECIST 1.1,CYCLE 2 DAY 1,2,2023-05-18,84,SD,3,Y
ONCVIZ-001,ONCVIZ-001-15-0059,TREATMENT,OVRLRESP,Overall Response per RECIST 1.1,CYCLE 3 DAY 1,3,2023-06-29,126,SD,3,Y
ONCVIZ-001,ONCVIZ-001-15-0059,TREATMENT,OVRLRESP,Overall Response per RECIST 1.1,CYCLE 4 DAY 1,4,2023-08-10,168,SD,3,Y
ONCVIZ-001,ONCVIZ-001-15-0059,TREATMENT,OVRLRESP,Overall Response per RECIST 1.1,CYCLE 5 DAY 1,5,2023-09-21,210,SD,3,Y
ONCVIZ-001,ONCVIZ-001-15-0059,TREATMENT,OVRLRESP,Overall Response per RECIST 1.1,CYCLE 6 DAY 1,6,2023-11-02,252,PD,4,Y
ONCVIZ-001,ONCVIZ-001-17-0060,CONTROL,OVRLRESP,Overall Response per RECIST 1.1,CYCLE 1 DAY 1,1,2023-07-18,42,SD,3,Y
ONCVIZ-001,ONCVIZ-001-17-0060,CONTROL,OVRLRESP,Overall Response per RECIST 1.1,CYCLE 2 DAY 1,2,2023-08-29,84,SD,3,Y
ONCVIZ-001,ONCVIZ-001-17-0060,CONTROL,OVRLRESP,Overall Response per RECIST 1.1,CYCLE 3 DAY 1,3,2023-10-10,126,PD,4,Y
ONCVIZ-001,ONCVIZ-001-18-0061,TREATMENT,OVRLRESP,Overall Response per RECIST 1.1,CYCLE 1 DAY 1,1,2022-09-21,42,PD,4,Y
ONCVIZ-001,ONCVIZ-001-13-0062,TREATMENT,OVRLRESP,Overall Response per RECIST 1.1,CYCLE 1 DAY 1,1,2023-01-22,42,PR,2,Y
ONCVIZ-001,ONCVIZ-001-13-0062,TREATMENT,OVRLRESP,Overall Response per RECIST 1.1,CYCLE 2 DAY 1,2,2023-03-05,84,PR,2,Y
ONCVIZ-001,ONCVIZ-001-13-0062,TREATMENT,OVRLRESP,Overall Response per RECIST 1.1,CYCLE 3 DAY 1,3,2023-04-16,126,PD,4,Y
ONCVIZ-001,ONCVIZ-001-01-0063,TREATMENT,OVRLRESP,Overall Response per RECIST 1.1,CYCLE 1 DAY 1,1,2023-09-09,42,PR,2,Y
ONCVIZ-001,ONCVIZ-001-01-0063,TREATMENT,OVRLRESP,Overall Response per RECIST 1.1,CYCLE 2 DAY 1,2,2023-10-21,84,PR,2,Y
ONCVIZ-001,ONCVIZ-001-01-0063,TREATMENT,OVRLRESP,Overall Response per RECIST 1.1,CYCLE 3 DAY 1,3,2023-12-02,126,PR,2,Y
ONCVIZ-001,ONCVIZ-001-01-0063,TREATMENT,OVRLRESP,Overall Response per RECIST 1.1,CYCLE 4 DAY 1,4,2024-01-13,168,PR,2,Y
ONCVIZ-001,ONCVIZ-001-01-0063,TREATMENT,OVRLRESP,Overall Response per RECIST 1.1,CYCLE 5 DAY 1,5,2024-02-24,210,CR,1,Y
ONCVIZ-001,ONCVIZ-001-01-0063,TREATMENT,OVRLRESP,Overall Response per RECIST 1.1,CYCLE 6 DAY 1,6,2024-04-06,252,PR,2,Y
ONCVIZ-001,ONCVIZ-001-01-0063,TREATMENT,OVRLRESP,Overall Response per RECIST 1.1,CYCLE 7 DAY 1,7,2024-05-18,294,PR,2,Y
ONCVIZ-001,ONCVIZ-001-01-0063,TREATMENT,OVRLRESP,Overall Response per RECIST 1.1,CYCLE 8 DAY 1,8,2024-06-29,336,CR,1,Y
ONCVIZ-001,ONCVIZ-001-01-0063,TREATMENT,OVRLRESP,Overall Response per RECIST 1.1,CYCLE 9 DAY 1,9,2024-08-10,378,CR,1,Y
ONCVIZ-001,ONCVIZ-001-01-0063,TREATMENT,OVRLRESP,Overall Response per RECIST 1.1,CYCLE 10 DAY 1,10,2024-09-21,420,CR,1,Y
ONCVIZ-001,ONCVIZ-001-01-0063,TREATMENT,OVRLRESP,Overall Response per RECIST 1.1,CYCLE 11 DAY 1,11,2024-11-02,462,CR,1,Y
ONCVIZ-001,ONCVIZ-001-01-0063,TREATMENT,OVRLRESP,Overall Response per RECIST 1.1,CYCLE 12 DAY 1,12,2024-12-14,504,PR,2,Y
ONCVIZ-001,ONCVIZ-001-01-0063,TREATMENT,OVRLRESP,Overall Response per RECIST 1.1,CYCLE 13 DAY 1,13,2025-01-25,546,PR,2,Y
ONCVIZ-001,ONCVIZ-001-01-0063,TREATMENT,OVRLRESP,Overall Response per RECIST 1.1,CYCLE 14 DAY 1,14,2025-03-08,588,PR,2,Y
ONCVIZ-001,ONCVIZ-001-01-0063,TREATMENT,OVRLRESP,Overall Response per RECIST 1.1,CYCLE 15 DAY 1,15,2025-04-19,630,SD,3,Y
ONCVIZ-001,ONCVIZ-001-01-0063,TREATMENT,OVRLRESP,Overall Response per RECIST 1.1,CYCLE 16 DAY 1,16,2025-05-31,672,PD,4,Y
ONCVIZ-001,ONCVIZ-001-14-0064,TREATMENT,OVRLRESP,Overall Response per RECIST 1.1,CYCLE 1 DAY 1,1,2023-10-16,42,CR,1,Y
ONCVIZ-001,ONCVIZ-001-14-0064,TREATMENT,OVRLRESP,Overall Response per RECIST 1.1,CYCLE 2 DAY 1,2,2023-11-27,84,CR,1,Y
ONCVIZ-001,ONCVIZ-001-14-0064,TREATMENT,OVRLRESP,Overall Response per RECIST 1.1,CYCLE 3 DAY 1,3,2024-01-08,126,CR,1,Y
ONCVIZ-001,ONCVIZ-001-14-0064,TREATMENT,OVRLRESP,Overall Response per RECIST 1.1,CYCLE 4 DAY 1,4,2024-02-19,168,CR,1,Y
ONCVIZ-001,ONCVIZ-001-14-0064,TREATMENT,OVRLRESP,Overall Response per RECIST 1.1,CYCLE 5 DAY 1,5,2024-04-01,210,CR,1,Y
ONCVIZ-001,ONCVIZ-001-20-0065,TREATMENT,OVRLRESP,Overall Response per RECIST 1.1,CYCLE 1 DAY 1,1,2023-07-15,42,SD,3,Y
ONCVIZ-001,ONCVIZ-001-20-0065,TREATMENT,OVRLRESP,Overall Response per RECIST 1.1,CYCLE 2 DAY 1,2,2023-08-26,84,PR,2,Y
ONCVIZ-001,ONCVIZ-001-20-0065,TREATMENT,OVRLRESP,Overall Response per RECIST 1.1,CYCLE 3 DAY 1,3,2023-10-07,126,PR,2,Y
ONCVIZ-001,ONCVIZ-001-20-0065,TREATMENT,OVRLRESP,Overall Response per RECIST 1.1,CYCLE 4 DAY 1,4,2023-11-18,168,PR,2,Y
ONCVIZ-001,ONCVIZ-001-20-0065,TREATMENT,OVRLRESP,Overall Response per RECIST 1.1,CYCLE 5 DAY 1,5,2023-12-30,210,PR,2,Y
ONCVIZ-001,ONCVIZ-001-20-0065,TREATMENT,OVRLRESP,Overall Response per RECIST 1.1,CYCLE 6 DAY 1,6,2024-02-10,252,CR,1,Y
ONCVIZ-001,ONCVIZ-001-20-0065,TREATMENT,OVRLRESP,Overall Response per RECIST 1.1,CYCLE 7 DAY 1,7,2024-03-23,294,CR,1,Y
ONCVIZ-001,ONCVIZ-001-20-0065,TREATMENT,OVRLRESP,Overall Response per RECIST 1.1,CYCLE 8 DAY 1,8,2024-05-04,336,CR,1,Y
ONCVIZ-001,ONCVIZ-001-20-0065,TREATMENT,OVRLRESP,Overall Response per RECIST 1.1,CYCLE 9 DAY 1,9,2024-06-15,378,CR,1,Y
ONCVIZ-001,ONCVIZ-001-20-0065,TREATMENT,OVRLRESP,Overall Response per RECIST 1.1,CYCLE 10 DAY 1,10,2024-07-27,420,PR,2,Y
ONCVIZ-001,ONCVIZ-001-20-0065,TREATMENT,OVRLRESP,Overall Response per RECIST 1.1,CYCLE 11 DAY 1,11,2024-09-07,462,PR,2,Y
ONCVIZ-001,ONCVIZ-001-20-0065,TREATMENT,OVRLRESP,Overall Response per RECIST 1.1,CYCLE 12 DAY 1,12,2024-10-19,504,PR,2,Y
ONCVIZ-001,ONCVIZ-001-20-0065,TREATMENT,OVRLRESP,Overall Response per RECIST 1.1,CYCLE 13 DAY 1,13,2024-11-30,546,PR,2,Y
ONCVIZ-001,ONCVIZ-001-20-0065,TREATMENT,OVRLRESP,Overall Response per RECIST 1.1,CYCLE 14 DAY 1,14,2025-01-11,588,PD,4,Y
ONCVIZ-001,ONCVIZ-001-11-0066,CONTROL,OVRLRESP,Overall Response per RECIST 1.1,CYCLE 1 DAY 1,1,2023-07-08,42,PD,4,Y
ONCVIZ-001,ONCVIZ-001-02-0067,TREATMENT,OVRLRESP,Overall Response per RECIST 1.1,CYCLE 1 DAY 1,1,2023-12-09,42,PR,2,Y
ONCVIZ-001,ONCVIZ-001-02-0067,TREATMENT,OVRLRESP,Overall Response per RECIST 1.1,CYCLE 2 DAY 1,2,2024-01-20,84,PR,2,Y
ONCVIZ-001,ONCVIZ-001-02-0067,TREATMENT,OVRLRESP,Overall Response per RECIST 1.1,CYCLE 3 DAY 1,3,2024-03-02,126,PR,2,Y
ONCVIZ-001,ONCVIZ-001-08-0068,TREATMENT,OVRLRESP,Overall Response per RECIST 1.1,CYCLE 1 DAY 1,1,2022-10-18,42,PR,2,Y
ONCVIZ-001,ONCVIZ-001-08-0068,TREATMENT,OVRLRESP,Overall Response per RECIST 1.1,CYCLE 2 DAY 1,2,2022-11-29,84,PR,2,Y
ONCVIZ-001,ONCVIZ-001-08-0068,TREATMENT,OVRLRESP,Overall Response per RECIST 1.1,CYCLE 3 DAY 1,3,2023-01-10,126,PR,2,Y
ONCVIZ-001,ONCVIZ-001-08-0068,TREATMENT,OVRLRESP,Overall Response per RECIST 1.1,CYCLE 4 DAY 1,4,2023-02-21,168,PR,2,Y
ONCVIZ-001,ONCVIZ-001-08-0068,TREATMENT,OVRLRESP,Overall Response per RECIST 1.1,CYCLE 5 DAY 1,5,2023-04-04,210,PR,2,Y
ONCVIZ-001,ONCVIZ-001-08-0068,TREATMENT,OVRLRESP,Overall Response per RECIST 1.1,CYCLE 6 DAY 1,6,2023-05-16,252,PR,2,Y
ONCVIZ-001,ONCVIZ-001-08-0068,TREATMENT,OVRLRESP,Overall Response per RECIST 1.1,CYCLE 7 DAY 1,7,2023-06-27,294,PR,2,Y
ONCVIZ-001,ONCVIZ-001-08-0068,TREATMENT,OVRLRESP,Overall Response per RECIST 1.1,CYCLE 8 DAY 1,8,2023-08-08,336,PR,2,Y
ONCVIZ-001,ONCVIZ-001-08-0068,TREATMENT,OVRLRESP,Overall Response per RECIST 1.1,CYCLE 9 DAY 1,9,2023-09-19,378,CR,1,Y
ONCVIZ-001,ONCVIZ-001-08-0068,TREATMENT,OVRLRESP,Overall Response per RECIST 1.1,CYCLE 10 DAY 1,10,2023-10-31,420,CR,1,Y
ONCVIZ-001,ONCVIZ-001-08-0068,TREATMENT,OVRLRESP,Overall Response per RECIST 1.1,CYCLE 11 DAY 1,11,2023-12-12,462,CR,1,Y
ONCVIZ-001,ONCVIZ-001-08-0068,TREATMENT,OVRLRESP,Overall Response per RECIST 1.1,CYCLE 12 DAY 1,12,2024-01-23,504,CR,1,Y
ONCVIZ-001,ONCVIZ-001-08-0068,TREATMENT,OVRLRESP,Overall Response per RECIST 1.1,CYCLE 13 DAY 1,13,2024-03-05,546,CR,1,Y
ONCVIZ-001,ONCVIZ-001-08-0068,TREATMENT,OVRLRESP,Overall Response per RECIST 1.1,CYCLE 14 DAY 1,14,2024-04-16,588,CR,1,Y
ONCVIZ-001,ONCVIZ-001-08-0068,TREATMENT,OVRLRESP,Overall Response per RECIST 1.1,CYCLE 15 DAY 1,15,2024-05-28,630,CR,1,Y
ONCVIZ-001,ONCVIZ-001-08-0068,TREATMENT,OVRLRESP,Overall Response per RECIST 1.1,CYCLE 16 DAY 1,16,2024-07-09,672,CR,1,Y
ONCVIZ-001,ONCVIZ-001-08-0068,TREATMENT,OVRLRESP,Overall Response per RECIST 1.1,CYCLE 17 DAY 1,17,2024-08-20,714,CR,1,Y
ONCVIZ-001,ONCVIZ-001-08-0068,TREATMENT,OVRLRESP,Overall Response per RECIST 1.1,CYCLE 18 DAY 1,18,2024-10-01,756,PR,2,Y
ONCVIZ-001,ONCVIZ-001-08-0068,TREATMENT,OVRLRESP,Overall Response per RECIST 1.1,CYCLE 19 DAY 1,19,2024-11-12,798,PR,2,Y
ONCVIZ-001,ONCVIZ-001-08-0068,TREATMENT,OVRLRESP,Overall Response per RECIST 1.1,CYCLE 20 DAY 1,20,2024-12-24,840,PR,2,Y
ONCVIZ-001,ONCVIZ-001-08-0068,TREATMENT,OVRLRESP,Overall Response per RECIST 1.1,CYCLE 21 DAY 1,21,2025-02-04,882,SD,3,Y
ONCVIZ-001,ONCVIZ-001-08-0068,TREATMENT,OVRLRESP,Overall Response per RECIST 1.1,CYCLE 22 DAY 1,22,2025-03-18,924,PD,4,Y
ONCVIZ-001,ONCVIZ-001-03-0069,CONTROL,OVRLRESP,Overall Response per RECIST 1.1,CYCLE 1 DAY 1,1,2023-07-02,42,PD,4,Y
ONCVIZ-001,ONCVIZ-001-13-0070,CONTROL,OVRLRESP,Overall Response per RECIST 1.1,CYCLE 1 DAY 1,1,2023-04-15,42,PD,4,Y
ONCVIZ-001,ONCVIZ-001-01-0071,TREATMENT,OVRLRESP,Overall Response per RECIST 1.1,CYCLE 1 DAY 1,1,2023-03-22,42,PD,4,Y
ONCVIZ-001,ONCVIZ-001-13-0072,TREATMENT,OVRLRESP,Overall Response per RECIST 1.1,CYCLE 1 DAY 1,1,2022-11-06,42,PR,2,Y
ONCVIZ-001,ONCVIZ-001-15-0073,CONTROL,OVRLRESP,Overall Response per RECIST 1.1,CYCLE 1 DAY 1,1,2022-10-08,42,PR,2,Y
ONCVIZ-001,ONCVIZ-001-15-0073,CONTROL,OVRLRESP,Overall Response per RECIST 1.1,CYCLE 2 DAY 1,2,2022-11-19,84,PR,2,Y
ONCVIZ-001,ONCVIZ-001-15-0073,CONTROL,OVRLRESP,Overall Response per RECIST 1.1,CYCLE 3 DAY 1,3,2022-12-31,126,PR,2,Y
ONCVIZ-001,ONCVIZ-001-15-0073,CONTROL,OVRLRESP,Overall Response per RECIST 1.1,CYCLE 4 DAY 1,4,2023-02-11,168,PD,4,Y
ONCVIZ-001,ONCVIZ-001-13-0074,CONTROL,OVRLRESP,Overall Response per RECIST 1.1,CYCLE 1 DAY 1,1,2023-02-09,42,SD,3,Y
ONCVIZ-001,ONCVIZ-001-13-0074,CONTROL,OVRLRESP,Overall Response per RECIST 1.1,CYCLE 2 DAY 1,2,2023-03-23,84,SD,3,Y
ONCVIZ-001,ONCVIZ-001-13-0074,CONTROL,OVRLRESP,Overall Response per RECIST 1.1,CYCLE 3 DAY 1,3,2023-05-04,126,SD,3,Y
ONCVIZ-001,ONCVIZ-001-13-0074,CONTROL,OVRLRESP,Overall Response per RECIST 1.1,CYCLE 4 DAY 1,4,2023-06-15,168,SD,3,Y
ONCVIZ-001,ONCVIZ-001-13-0074,CONTROL,OVRLRESP,Overall Response per RECIST 1.1,CYCLE 5 DAY 1,5,2023-07-27,210,SD,3,Y
ONCVIZ-001,ONCVIZ-001-13-0074,CONTROL,OVRLRESP,Overall Response per RECIST 1.1,CYCLE 6 DAY 1,6,2023-09-07,252,SD,3,Y
ONCVIZ-001,ONCVIZ-001-13-0074,CONTROL,OVRLRESP,Overall Response per RECIST 1.1,CYCLE 7 DAY 1,7,2023-10-19,294,SD,3,Y
ONCVIZ-001,ONCVIZ-001-13-0074,CONTROL,OVRLRESP,Overall Response per RECIST 1.1,CYCLE 8 DAY 1,8,2023-11-30,336,PD,4,Y
ONCVIZ-001,ONCVIZ-001-02-0075,CONTROL,OVRLRESP,Overall Response per RECIST 1.1,CYCLE 1 DAY 1,1,2022-09-15,42,PD,4,Y
ONCVIZ-001,ONCVIZ-001-16-0076,TREATMENT,OVRLRESP,Overall Response per RECIST 1.1,CYCLE 1 DAY 1,1,2023-01-06,42,SD,3,Y
ONCVIZ-001,ONCVIZ-001-16-0076,TREATMENT,OVRLRESP,Overall Response per RECIST 1.1,CYCLE 2 DAY 1,2,2023-02-17,84,SD,3,Y
ONCVIZ-001,ONCVIZ-001-16-0076,TREATMENT,OVRLRESP,Overall Response per RECIST 1.1,CYCLE 3 DAY 1,3,2023-03-31,126,PD,4,Y
ONCVIZ-001,ONCVIZ-001-12-0077,CONTROL,OVRLRESP,Overall Response per RECIST 1.1,CYCLE 1 DAY 1,1,2023-07-23,42,PD,4,Y
ONCVIZ-001,ONCVIZ-001-08-0078,TREATMENT,OVRLRESP,Overall Response per RECIST 1.1,CYCLE 1 DAY 1,1,2023-05-08,42,SD,3,Y
ONCVIZ-001,ONCVIZ-001-08-0078,TREATMENT,OVRLRESP,Overall Response per RECIST 1.1,CYCLE 2 DAY 1,2,2023-06-19,84,SD,3,Y
ONCVIZ-001,ONCVIZ-001-08-0078,TREATMENT,OVRLRESP,Overall Response per RECIST 1.1,CYCLE 3 DAY 1,3,2023-07-31,126,PD,4,Y
ONCVIZ-001,ONCVIZ-001-14-0079,CONTROL,OVRLRESP,Overall Response per RECIST 1.1,CYCLE 1 DAY 1,1,2023-06-13,42,PD,4,Y
ONCVIZ-001,ONCVIZ-001-18-0080,TREATMENT,OVRLRESP,Overall Response per RECIST 1.1,CYCLE 1 DAY 1,1,2023-05-18,42,PD,4,Y
ONCVIZ-001,ONCVIZ-001-06-0081,TREATMENT,OVRLRESP,Overall Response per RECIST 1.1,CYCLE 1 DAY 1,1,2023-08-08,42,PR,2,Y
ONCVIZ-001,ONCVIZ-001-06-0081,TREATMENT,OVRLRESP,Overall Response per RECIST 1.1,CYCLE 2 DAY 1,2,2023-09-19,84,PR,2,Y
ONCVIZ-001,ONCVIZ-001-06-0081,TREATMENT,OVRLRESP,Overall Response per RECIST 1.1,CYCLE 3 DAY 1,3,2023-10-31,126,CR,1,Y
ONCVIZ-001,ONCVIZ-001-06-0081,TREATMENT,OVRLRESP,Overall Response per RECIST 1.1,CYCLE 4 DAY 1,4,2023-12-12,168,CR,1,Y
ONCVIZ-001,ONCVIZ-001-06-0081,TREATMENT,OVRLRESP,Overall Response per RECIST 1.1,CYCLE 5 DAY 1,5,2024-01-23,210,CR,1,Y
ONCVIZ-001,ONCVIZ-001-06-0081,TREATMENT,OVRLRESP,Overall Response per RECIST 1.1,CYCLE 6 DAY 1,6,2024-03-05,252,CR,1,Y
ONCVIZ-001,ONCVIZ-001-06-0081,TREATMENT,OVRLRESP,Overall Response per RECIST 1.1,CYCLE 7 DAY 1,7,2024-04-16,294,CR,1,Y
ONCVIZ-001,ONCVIZ-001-06-0081,TREATMENT,OVRLRESP,Overall Response per RECIST 1.1,CYCLE 8 DAY 1,8,2024-05-28,336,CR,1,Y
ONCVIZ-001,ONCVIZ-001-06-0081,TREATMENT,OVRLRESP,Overall Response per RECIST 1.1,CYCLE 9 DAY 1,9,2024-07-09,378,CR,1,Y
ONCVIZ-001,ONCVIZ-001-06-0081,TREATMENT,OVRLRESP,Overall Response per RECIST 1.1,CYCLE 10 DAY 1,10,2024-08-20,420,CR,1,Y
ONCVIZ-001,ONCVIZ-001-06-0081,TREATMENT,OVRLRESP,Overall Response per RECIST 1.1,CYCLE 11 DAY 1,11,2024-10-01,462,SD,3,Y
ONCVIZ-001,ONCVIZ-001-06-0081,TREATMENT,OVRLRESP,Overall Response per RECIST 1.1,CYCLE 12 DAY 1,12,2024-11-12,504,PR,2,Y
ONCVIZ-001,ONCVIZ-001-06-0081,TREATMENT,OVRLRESP,Overall Response per RECIST 1.1,CYCLE 13 DAY 1,13,2024-12-24,546,PR,2,Y
ONCVIZ-001,ONCVIZ-001-06-0081,TREATMENT,OVRLRESP,Overall Response per RECIST 1.1,CYCLE 14 DAY 1,14,2025-02-04,588,PR,2,Y
ONCVIZ-001,ONCVIZ-001-06-0081,TREATMENT,OVRLRESP,Overall Response per RECIST 1.1,CYCLE 15 DAY 1,15,2025-03-18,630,PD,4,Y
ONCVIZ-001,ONCVIZ-001-01-0082,TREATMENT,OVRLRESP,Overall Response per RECIST 1.1,CYCLE 1 DAY 1,1,2023-05-17,42,SD,3,Y
ONCVIZ-001,ONCVIZ-001-01-0082,TREATMENT,OVRLRESP,Overall Response per RECIST 1.1,CYCLE 2 DAY 1,2,2023-06-28,84,SD,3,Y
ONCVIZ-001,ONCVIZ-001-01-0082,TREATMENT,OVRLRESP,Overall Response per RECIST 1.1,CYCLE 3 DAY 1,3,2023-08-09,126,SD,3,Y
ONCVIZ-001,ONCVIZ-001-01-0082,TREATMENT,OVRLRESP,Overall Response per RECIST 1.1,CYCLE 4 DAY 1,4,2023-09-20,168,PD,4,Y
ONCVIZ-001,ONCVIZ-001-08-0083,TREATMENT,OVRLRESP,Overall Response per RECIST 1.1,CYCLE 1 DAY 1,1,2023-12-08,42,PR,2,Y
ONCVIZ-001,ONCVIZ-001-08-0083,TREATMENT,OVRLRESP,Overall Response per RECIST 1.1,CYCLE 2 DAY 1,2,2024-01-19,84,CR,1,Y
ONCVIZ-001,ONCVIZ-001-08-0083,TREATMENT,OVRLRESP,Overall Response per RECIST 1.1,CYCLE 3 DAY 1,3,2024-03-01,126,CR,1,Y
ONCVIZ-001,ONCVIZ-001-08-0083,TREATMENT,OVRLRESP,Overall Response per RECIST 1.1,CYCLE 4 DAY 1,4,2024-04-12,168,CR,1,Y
ONCVIZ-001,ONCVIZ-001-08-0083,TREATMENT,OVRLRESP,Overall Response per RECIST 1.1,CYCLE 5 DAY 1,5,2024-05-24,210,CR,1,Y
ONCVIZ-001,ONCVIZ-001-08-0083,TREATMENT,OVRLRESP,Overall Response per RECIST 1.1,CYCLE 6 DAY 1,6,2024-07-05,252,SD,3,Y
ONCVIZ-001,ONCVIZ-001-08-0083,TREATMENT,OVRLRESP,Overall Response per RECIST 1.1,CYCLE 7 DAY 1,7,2024-08-16,294,PD,4,Y
ONCVIZ-001,ONCVIZ-001-03-0084,TREATMENT,OVRLRESP,Overall Response per RECIST 1.1,CYCLE 1 DAY 1,1,2022-07-24,42,PD,4,Y
ONCVIZ-001,ONCVIZ-001-05-0085,CONTROL,OVRLRESP,Overall Response per RECIST 1.1,CYCLE 1 DAY 1,1,2022-07-25,42,PR,2,Y
ONCVIZ-001,ONCVIZ-001-05-0085,CONTROL,OVRLRESP,Overall Response per RECIST 1.1,CYCLE 2 DAY 1,2,2022-09-05,84,PR,2,Y
ONCVIZ-001,ONCVIZ-001-05-0085,CONTROL,OVRLRESP,Overall Response per RECIST 1.1,CYCLE 3 DAY 1,3,2022-10-17,126,PD,4,Y
ONCVIZ-001,ONCVIZ-001-14-0086,TREATMENT,OVRLRESP,Overall Response per RECIST 1.1,CYCLE 1 DAY 1,1,2023-03-18,42,PD,4,Y
ONCVIZ-001,ONCVIZ-001-08-0087,TREATMENT,OVRLRESP,Overall Response per RECIST 1.1,CYCLE 1 DAY 1,1,2023-10-25,42,PD,4,Y
ONCVIZ-001,ONCVIZ-001-02-0088,TREATMENT,OVRLRESP,Overall Response per RECIST 1.1,CYCLE 1 DAY 1,1,2022-11-12,42,PD,4,Y
ONCVIZ-001,ONCVIZ-001-11-0089,TREATMENT,OVRLRESP,Overall Response per RECIST 1.1,CYCLE 1 DAY 1,1,2023-04-04,42,PR,2,Y
ONCVIZ-001,ONCVIZ-001-11-0090,TREATMENT,OVRLRESP,Overall Response per RECIST 1.1,CYCLE 1 DAY 1,1,2024-01-02,42,PR,2,Y
ONCVIZ-001,ONCVIZ-001-11-0090,TREATMENT,OVRLRESP,Overall Response per RECIST 1.1,CYCLE 2 DAY 1,2,2024-02-13,84,SD,3,Y
ONCVIZ-001,ONCVIZ-001-11-0090,TREATMENT,OVRLRESP,Overall Response per RECIST 1.1,CYCLE 3 DAY 1,3,2024-03-26,126,SD,3,Y
ONCVIZ-001,ONCVIZ-001-11-0090,TREATMENT,OVRLRESP,Overall Response per RECIST 1.1,CYCLE 4 DAY 1,4,2024-05-07,168,PD,4,Y
ONCVIZ-001,ONCVIZ-001-12-0091,TREATMENT,OVRLRESP,Overall Response per RECIST 1.1,CYCLE 1 DAY 1,1,2023-08-14,42,SD,3,Y
ONCVIZ-001,ONCVIZ-001-12-0091,TREATMENT,OVRLRESP,Overall Response per RECIST 1.1,CYCLE 2 DAY 1,2,2023-09-25,84,SD,3,Y
ONCVIZ-001,ONCVIZ-001-12-0091,TREATMENT,OVRLRESP,Overall Response per RECIST 1.1,CYCLE 3 DAY 1,3,2023-11-06,126,PR,2,Y
ONCVIZ-001,ONCVIZ-001-12-0091,TREATMENT,OVRLRESP,Overall Response per RECIST 1.1,CYCLE 4 DAY 1,4,2023-12-18,168,PR,2,Y
ONCVIZ-001,ONCVIZ-001-12-0091,TREATMENT,OVRLRESP,Overall Response per RECIST 1.1,CYCLE 5 DAY 1,5,2024-01-29,210,CR,1,Y
ONCVIZ-001,ONCVIZ-001-12-0091,TREATMENT,OVRLRESP,Overall Response per RECIST 1.1,CYCLE 6 DAY 1,6,2024-03-11,252,CR,1,Y
ONCVIZ-001,ONCVIZ-001-12-0091,TREATMENT,OVRLRESP,Overall Response per RECIST 1.1,CYCLE 7 DAY 1,7,2024-04-22,294,CR,1,Y
ONCVIZ-001,ONCVIZ-001-12-0091,TREATMENT,OVRLRESP,Overall Response per RECIST 1.1,CYCLE 8 DAY 1,8,2024-06-03,336,CR,1,Y
ONCVIZ-001,ONCVIZ-001-12-0091,TREATMENT,OVRLRESP,Overall Response per RECIST 1.1,CYCLE 9 DAY 1,9,2024-07-15,378,CR,1,Y
ONCVIZ-001,ONCVIZ-001-12-0091,TREATMENT,OVRLRESP,Overall Response per RECIST 1.1,CYCLE 10 DAY 1,10,2024-08-26,420,CR,1,Y
ONCVIZ-001,ONCVIZ-001-12-0091,TREATMENT,OVRLRESP,Overall Response per RECIST 1.1,CYCLE 11 DAY 1,11,2024-10-07,462,CR,1,Y
ONCVIZ-001,ONCVIZ-001-12-0091,TREATMENT,OVRLRESP,Overall Response per RECIST 1.1,CYCLE 12 DAY 1,12,2024-11-18,504,CR,1,Y
ONCVIZ-001,ONCVIZ-001-12-0091,TREATMENT,OVRLRESP,Overall Response per RECIST 1.1,CYCLE 13 DAY 1,13,2024-12-30,546,CR,1,Y
ONCVIZ-001,ONCVIZ-001-12-0091,TREATMENT,OVRLRESP,Overall Response per RECIST 1.1,CYCLE 14 DAY 1,14,2025-02-10,588,CR,1,Y
ONCVIZ-001,ONCVIZ-001-12-0091,TREATMENT,OVRLRESP,Overall Response per RECIST 1.1,CYCLE 15 DAY 1,15,2025-03-24,630,PR,2,Y
ONCVIZ-001,ONCVIZ-001-12-0091,TREATMENT,OVRLRESP,Overall Response per RECIST 1.1,CYCLE 16 DAY 1,16,2025-05-05,672,PR,2,Y
ONCVIZ-001,ONCVIZ-001-12-0091,TREATMENT,OVRLRESP,Overall Response per RECIST 1.1,CYCLE 17 DAY 1,17,2025-06-16,714,PD,4,Y
ONCVIZ-001,ONCVIZ-001-12-0092,CONTROL,OVRLRESP,Overall Response per RECIST 1.1,CYCLE 1 DAY 1,1,2023-06-09,42,PD,4,Y
ONCVIZ-001,ONCVIZ-001-12-0093,CONTROL,OVRLRESP,Overall Response per RECIST 1.1,CYCLE 1 DAY 1,1,2023-08-17,42,PD,4,Y
ONCVIZ-001,ONCVIZ-001-19-0094,TREATMENT,OVRLRESP,Overall Response per RECIST 1.1,CYCLE 1 DAY 1,1,2023-08-04,42,SD,3,Y
ONCVIZ-001,ONCVIZ-001-19-0094,TREATMENT,OVRLRESP,Overall Response per RECIST 1.1,CYCLE 2 DAY 1,2,2023-09-15,84,SD,3,Y
ONCVIZ-001,ONCVIZ-001-19-0094,TREATMENT,OVRLRESP,Overall Response per RECIST 1.1,CYCLE 3 DAY 1,3,2023-10-27,126,SD,3,Y
ONCVIZ-001,ONCVIZ-001-19-0094,TREATMENT,OVRLRESP,Overall Response per RECIST 1.1,CYCLE 4 DAY 1,4,2023-12-08,168,PD,4,Y
ONCVIZ-001,ONCVIZ-001-08-0095,TREATMENT,OVRLRESP,Overall Response per RECIST 1.1,CYCLE 1 DAY 1,1,2023-04-10,42,PD,4,Y
ONCVIZ-001,ONCVIZ-001-12-0096,TREATMENT,OVRLRESP,Overall Response per RECIST 1.1,CYCLE 1 DAY 1,1,2022-09-14,42,PR,2,Y
ONCVIZ-001,ONCVIZ-001-12-0096,TREATMENT,OVRLRESP,Overall Response per RECIST 1.1,CYCLE 2 DAY 1,2,2022-10-26,84,SD,3,Y
ONCVIZ-001,ONCVIZ-001-12-0096,TREATMENT,OVRLRESP,Overall Response per RECIST 1.1,CYCLE 3 DAY 1,3,2022-12-07,126,PD,4,Y
ONCVIZ-001,ONCVIZ-001-19-0097,TREATMENT,OVRLRESP,Overall Response per RECIST 1.1,CYCLE 1 DAY 1,1,2022-08-25,42,PD,4,Y
ONCVIZ-001,ONCVIZ-001-03-0098,TREATMENT,OVRLRESP,Overall Response per RECIST 1.1,CYCLE 1 DAY 1,1,2023-11-22,42,CR,1,Y
ONCVIZ-001,ONCVIZ-001-03-0098,TREATMENT,OVRLRESP,Overall Response per RECIST 1.1,CYCLE 2 DAY 1,2,2024-01-03,84,CR,1,Y
ONCVIZ-001,ONCVIZ-001-03-0098,TREATMENT,OVRLRESP,Overall Response per RECIST 1.1,CYCLE 3 DAY 1,3,2024-02-14,126,PR,2,Y
ONCVIZ-001,ONCVIZ-001-03-0098,TREATMENT,OVRLRESP,Overall Response per RECIST 1.1,CYCLE 4 DAY 1,4,2024-03-27,168,PR,2,Y
ONCVIZ-001,ONCVIZ-001-03-0098,TREATMENT,OVRLRESP,Overall Response per RECIST 1.1,CYCLE 5 DAY 1,5,2024-05-08,210,SD,3,Y
ONCVIZ-001,ONCVIZ-001-03-0098,TREATMENT,OVRLRESP,Overall Response per RECIST 1.1,CYCLE 6 DAY 1,6,2024-06-19,252,PD,4,Y
ONCVIZ-001,ONCVIZ-001-13-0099,TREATMENT,OVRLRESP,Overall Response per RECIST 1.1,CYCLE 1 DAY 1,1,2023-09-02,42,SD,3,Y
ONCVIZ-001,ONCVIZ-001-13-0099,TREATMENT,OVRLRESP,Overall Response per RECIST 1.1,CYCLE 2 DAY 1,2,2023-10-14,84,PD,4,Y
ONCVIZ-001,ONCVIZ-001-17-0100,TREATMENT,OVRLRESP,Overall Response per RECIST 1.1,CYCLE 1 DAY 1,1,2023-04-03,42,PR,2,Y
ONCVIZ-001,ONCVIZ-001-17-0100,TREATMENT,OVRLRESP,Overall Response per RECIST 1.1,CYCLE 2 DAY 1,2,2023-05-15,84,CR,1,Y
ONCVIZ-001,ONCVIZ-001-17-0100,TREATMENT,OVRLRESP,Overall Response per RECIST 1.1,CYCLE 3 DAY 1,3,2023-06-26,126,CR,1,Y
ONCVIZ-001,ONCVIZ-001-17-0100,TREATMENT,OVRLRESP,Overall Response per RECIST 1.1,CYCLE 4 DAY 1,4,2023-08-07,168,PR,2,Y
ONCVIZ-001,ONCVIZ-001-17-0100,TREATMENT,OVRLRESP,Overall Response per RECIST 1.1,CYCLE 5 DAY 1,5,2023-09-18,210,PR,2,Y
ONCVIZ-001,ONCVIZ-001-17-0100,TREATMENT,OVRLRESP,Overall Response per RECIST 1.1,CYCLE 6 DAY 1,6,2023-10-30,252,PR,2,Y
ONCVIZ-001,ONCVIZ-001-17-0100,TREATMENT,OVRLRESP,Overall Response per RECIST 1.1,CYCLE 7 DAY 1,7,2023-12-11,294,PD,4,Y
ONCVIZ-001,ONCVIZ-001-07-0101,CONTROL,OVRLRESP,Overall Response per RECIST 1.1,CYCLE 1 DAY 1,1,2023-12-28,42,PD,4,Y
ONCVIZ-001,ONCVIZ-001-20-0102,TREATMENT,OVRLRESP,Overall Response per RECIST 1.1,CYCLE 1 DAY 1,1,2023-08-31,42,SD,3,Y
ONCVIZ-001,ONCVIZ-001-20-0102,TREATMENT,OVRLRESP,Overall Response per RECIST 1.1,CYCLE 2 DAY 1,2,2023-10-12,84,SD,3,Y
ONCVIZ-001,ONCVIZ-001-20-0102,TREATMENT,OVRLRESP,Overall Response per RECIST 1.1,CYCLE 3 DAY 1,3,2023-11-23,126,SD,3,Y
ONCVIZ-001,ONCVIZ-001-20-0102,TREATMENT,OVRLRESP,Overall Response per RECIST 1.1,CYCLE 4 DAY 1,4,2024-01-04,168,SD,3,Y
ONCVIZ-001,ONCVIZ-001-20-0102,TREATMENT,OVRLRESP,Overall Response per RECIST 1.1,CYCLE 5 DAY 1,5,2024-02-15,210,SD,3,Y
ONCVIZ-001,ONCVIZ-001-20-0102,TREATMENT,OVRLRESP,Overall Response per RECIST 1.1,CYCLE 6 DAY 1,6,2024-03-28,252,SD,3,Y
ONCVIZ-001,ONCVIZ-001-20-0102,TREATMENT,OVRLRESP,Overall Response per RECIST 1.1,CYCLE 7 DAY 1,7,2024-05-09,294,PD,4,Y
ONCVIZ-001,ONCVIZ-001-08-0103,CONTROL,OVRLRESP,Overall Response per RECIST 1.1,CYCLE 1 DAY 1,1,2023-07-28,42,PD,4,Y
ONCVIZ-001,ONCVIZ-001-03-0104,TREATMENT,OVRLRESP,Overall Response per RECIST 1.1,CYCLE 1 DAY 1,1,2022-12-22,42,PR,2,Y
ONCVIZ-001,ONCVIZ-001-03-0104,TREATMENT,OVRLRESP,Overall Response per RECIST 1.1,CYCLE 2 DAY 1,2,2023-02-02,84,PR,2,Y
ONCVIZ-001,ONCVIZ-001-03-0104,TREATMENT,OVRLRESP,Overall Response per RECIST 1.1,CYCLE 3 DAY 1,3,2023-03-16,126,PD,4,Y
ONCVIZ-001,ONCVIZ-001-16-0105,TREATMENT,OVRLRESP,Overall Response per RECIST 1.1,CYCLE 1 DAY 1,1,2022-11-27,42,SD,3,Y
ONCVIZ-001,ONCVIZ-001-16-0105,TREATMENT,OVRLRESP,Overall Response per RECIST 1.1,CYCLE 2 DAY 1,2,2023-01-08,84,SD,3,Y
ONCVIZ-001,ONCVIZ-001-16-0105,TREATMENT,OVRLRESP,Overall Response per RECIST 1.1,CYCLE 3 DAY 1,3,2023-02-19,126,PD,4,Y
ONCVIZ-001,ONCVIZ-001-08-0106,CONTROL,OVRLRESP,Overall Response per RECIST 1.1,CYCLE 1 DAY 1,1,2023-05-17,42,PR,2,Y
ONCVIZ-001,ONCVIZ-001-08-0106,CONTROL,OVRLRESP,Overall Response per RECIST 1.1,CYCLE 2 DAY 1,2,2023-06-28,84,PR,2,Y
ONCVIZ-001,ONCVIZ-001-08-0106,CONTROL,OVRLRESP,Overall Response per RECIST 1.1,CYCLE 3 DAY 1,3,2023-08-09,126,PR,2,Y
ONCVIZ-001,ONCVIZ-001-08-0106,CONTROL,OVRLRESP,Overall Response per RECIST 1.1,CYCLE 4 DAY 1,4,2023-09-20,168,PD,4,Y
ONCVIZ-001,ONCVIZ-001-04-0107,TREATMENT,OVRLRESP,Overall Response per RECIST 1.1,CYCLE 1 DAY 1,1,2023-12-18,42,SD,3,Y
ONCVIZ-001,ONCVIZ-001-04-0107,TREATMENT,OVRLRESP,Overall Response per RECIST 1.1,CYCLE 2 DAY 1,2,2024-01-29,84,SD,3,Y
ONCVIZ-001,ONCVIZ-001-04-0107,TREATMENT,OVRLRESP,Overall Response per RECIST 1.1,CYCLE 3 DAY 1,3,2024-03-11,126,SD,3,Y
ONCVIZ-001,ONCVIZ-001-04-0107,TREATMENT,OVRLRESP,Overall Response per RECIST 1.1,CYCLE 4 DAY 1,4,2024-04-22,168,PD,4,Y
ONCVIZ-001,ONCVIZ-001-10-0108,TREATMENT,OVRLRESP,Overall Response per RECIST 1.1,CYCLE 1 DAY 1,1,2023-08-11,42,PD,4,Y
ONCVIZ-001,ONCVIZ-001-02-0109,CONTROL,OVRLRESP,Overall Response per RECIST 1.1,CYCLE 1 DAY 1,1,2023-02-27,42,SD,3,Y
ONCVIZ-001,ONCVIZ-001-02-0109,CONTROL,OVRLRESP,Overall Response per RECIST 1.1,CYCLE 2 DAY 1,2,2023-04-10,84,PD,4,Y
ONCVIZ-001,ONCVIZ-001-08-0110,TREATMENT,OVRLRESP,Overall Response per RECIST 1.1,CYCLE 1 DAY 1,1,2022-10-11,42,PD,4,Y
ONCVIZ-001,ONCVIZ-001-02-0111,TREATMENT,OVRLRESP,Overall Response per RECIST 1.1,CYCLE 1 DAY 1,1,2023-05-07,42,PR,2,Y
ONCVIZ-001,ONCVIZ-001-02-0111,TREATMENT,OVRLRESP,Overall Response per RECIST 1.1,CYCLE 2 DAY 1,2,2023-06-18,84,PR,2,Y
ONCVIZ-001,ONCVIZ-001-02-0111,TREATMENT,OVRLRESP,Overall Response per RECIST 1.1,CYCLE 3 DAY 1,3,2023-07-30,126,PR,2,Y
ONCVIZ-001,ONCVIZ-001-02-0111,TREATMENT,OVRLRESP,Overall Response per RECIST 1.1,CYCLE 4 DAY 1,4,2023-09-10,168,SD,3,Y
ONCVIZ-001,ONCVIZ-001-02-0111,TREATMENT,OVRLRESP,Overall Response per RECIST 1.1,CYCLE 5 DAY 1,5,2023-10-22,210,PD,4,Y
ONCVIZ-001,ONCVIZ-001-14-0112,TREATMENT,OVRLRESP,Overall Response per RECIST 1.1,CYCLE 1 DAY 1,1,2023-11-19,42,SD,3,Y
ONCVIZ-001,ONCVIZ-001-20-0113,TREATMENT,OVRLRESP,Overall Response per RECIST 1.1,CYCLE 1 DAY 1,1,2022-11-25,42,PD,4,Y
ONCVIZ-001,ONCVIZ-001-18-0114,TREATMENT,OVRLRESP,Overall Response per RECIST 1.1,CYCLE 1 DAY 1,1,2023-10-19,42,PD,4,Y
ONCVIZ-001,ONCVIZ-001-17-0115,CONTROL,OVRLRESP,Overall Response per RECIST 1.1,CYCLE 1 DAY 1,1,2023-01-27,42,PD,4,Y
ONCVIZ-001,ONCVIZ-001-02-0116,TREATMENT,OVRLRESP,Overall Response per RECIST 1.1,CYCLE 1 DAY 1,1,2023-08-30,42,PR,2,Y
ONCVIZ-001,ONCVIZ-001-02-0116,TREATMENT,OVRLRESP,Overall Response per RECIST 1.1,CYCLE 2 DAY 1,2,2023-10-11,84,SD,3,Y
ONCVIZ-001,ONCVIZ-001-02-0116,TREATMENT,OVRLRESP,Overall Response per RECIST 1.1,CYCLE 3 DAY 1,3,2023-11-22,126,PD,4,Y
ONCVIZ-001,ONCVIZ-001-20-0117,TREATMENT,OVRLRESP,Overall Response per RECIST 1.1,CYCLE 1 DAY 1,1,2022-08-26,42,PD,4,Y
ONCVIZ-001,ONCVIZ-001-18-0118,TREATMENT,OVRLRESP,Overall Response per RECIST 1.1,CYCLE 1 DAY 1,1,2023-09-03,42,SD,3,Y
ONCVIZ-001,ONCVIZ-001-18-0118,TREATMENT,OVRLRESP,Overall Response per RECIST 1.1,CYCLE 2 DAY 1,2,2023-10-15,84,SD,3,Y
ONCVIZ-001,ONCVIZ-001-18-0118,TREATMENT,OVRLRESP,Overall Response per RECIST 1.1,CYCLE 3 DAY 1,3,2023-11-26,126,SD,3,Y
ONCVIZ-001,ONCVIZ-001-18-0118,TREATMENT,OVRLRESP,Overall Response per RECIST 1.1,CYCLE 4 DAY 1,4,2024-01-07,168,SD,3,Y
ONCVIZ-001,ONCVIZ-001-18-0118,TREATMENT,OVRLRESP,Overall Response per RECIST 1.1,CYCLE 5 DAY 1,5,2024-02-18,210,SD,3,Y
ONCVIZ-001,ONCVIZ-001-18-0118,TREATMENT,OVRLRESP,Overall Response per RECIST 1.1,CYCLE 6 DAY 1,6,2024-03-31,252,PD,4,Y
ONCVIZ-001,ONCVIZ-001-20-0119,TREATMENT,OVRLRESP,Overall Response per RECIST 1.1,CYCLE 1 DAY 1,1,2023-07-30,42,SD,3,Y
ONCVIZ-001,ONCVIZ-001-20-0119,TREATMENT,OVRLRESP,Overall Response per RECIST 1.1,CYCLE 2 DAY 1,2,2023-09-10,84,PD,4,Y
ONCVIZ-001,ONCVIZ-001-13-0120,TREATMENT,OVRLRESP,Overall Response per RECIST 1.1,CYCLE 1 DAY 1,1,2023-11-23,42,PD,4,Y
ONCVIZ-001,ONCVIZ-001-07-0121,TREATMENT,OVRLRESP,Overall Response per RECIST 1.1,CYCLE 1 DAY 1,1,2023-04-26,42,SD,3,Y
ONCVIZ-001,ONCVIZ-001-07-0121,TREATMENT,OVRLRESP,Overall Response per RECIST 1.1,CYCLE 2 DAY 1,2,2023-06-07,84,SD,3,Y
ONCVIZ-001,ONCVIZ-001-07-0121,TREATMENT,OVRLRESP,Overall Response per RECIST 1.1,CYCLE 3 DAY 1,3,2023-07-19,126,PD,4,Y
ONCVIZ-001,ONCVIZ-001-17-0122,TREATMENT,OVRLRESP,Overall Response per RECIST 1.1,CYCLE 1 DAY 1,1,2022-12-29,42,PR,2,Y
ONCVIZ-001,ONCVIZ-001-17-0122,TREATMENT,OVRLRESP,Overall Response per RECIST 1.1,CYCLE 2 DAY 1,2,2023-02-09,84,PD,4,Y
ONCVIZ-001,ONCVIZ-001-16-0123,CONTROL,OVRLRESP,Overall Response per RECIST 1.1,CYCLE 1 DAY 1,1,2022-09-30,42,SD,3,Y
ONCVIZ-001,ONCVIZ-001-16-0124,CONTROL,OVRLRESP,Overall Response per RECIST 1.1,CYCLE 1 DAY 1,1,2023-12-19,42,PD,4,Y
ONCVIZ-001,ONCVIZ-001-13-0125,TREATMENT,OVRLRESP,Overall Response per RECIST 1.1,CYCLE 1 DAY 1,1,2022-11-01,42,PR,2,Y
ONCVIZ-001,ONCVIZ-001-13-0125,TREATMENT,OVRLRESP,Overall Response per RECIST 1.1,CYCLE 2 DAY 1,2,2022-12-13,84,PR,2,Y
ONCVIZ-001,ONCVIZ-001-13-0125,TREATMENT,OVRLRESP,Overall Response per RECIST 1.1,CYCLE 3 DAY 1,3,2023-01-24,126,PR,2,Y
ONCVIZ-001,ONCVIZ-001-13-0125,TREATMENT,OVRLRESP,Overall Response per RECIST 1.1,CYCLE 4 DAY 1,4,2023-03-07,168,SD,3,Y
ONCVIZ-001,ONCVIZ-001-13-0125,TREATMENT,OVRLRESP,Overall Response per RECIST 1.1,CYCLE 5 DAY 1,5,2023-04-18,210,PR,2,Y
ONCVIZ-001,ONCVIZ-001-13-0125,TREATMENT,OVRLRESP,Overall Response per RECIST 1.1,CYCLE 6 DAY 1,6,2023-05-30,252,PR,2,Y
ONCVIZ-001,ONCVIZ-001-13-0125,TREATMENT,OVRLRESP,Overall Response per RECIST 1.1,CYCLE 7 DAY 1,7,2023-07-11,294,PR,2,Y
ONCVIZ-001,ONCVIZ-001-13-0125,TREATMENT,OVRLRESP,Overall Response per RECIST 1.1,CYCLE 8 DAY 1,8,2023-08-22,336,SD,3,Y
ONCVIZ-001,ONCVIZ-001-13-0125,TREATMENT,OVRLRESP,Overall Response per RECIST 1.1,CYCLE 9 DAY 1,9,2023-10-03,378,PD,4,Y
ONCVIZ-001,ONCVIZ-001-06-0126,TREATMENT,OVRLRESP,Overall Response per RECIST 1.1,CYCLE 1 DAY 1,1,2022-10-21,42,PR,2,Y
ONCVIZ-001,ONCVIZ-001-06-0126,TREATMENT,OVRLRESP,Overall Response per RECIST 1.1,CYCLE 2 DAY 1,2,2022-12-02,84,CR,1,Y
ONCVIZ-001,ONCVIZ-001-06-0126,TREATMENT,OVRLRESP,Overall Response per RECIST 1.1,CYCLE 3 DAY 1,3,2023-01-13,126,CR,1,Y
ONCVIZ-001,ONCVIZ-001-06-0126,TREATMENT,OVRLRESP,Overall Response per RECIST 1.1,CYCLE 4 DAY 1,4,2023-02-24,168,CR,1,Y
ONCVIZ-001,ONCVIZ-001-18-0127,TREATMENT,OVRLRESP,Overall Response per RECIST 1.1,CYCLE 1 DAY 1,1,2023-07-27,42,PR,2,Y
ONCVIZ-001,ONCVIZ-001-04-0128,CONTROL,OVRLRESP,Overall Response per RECIST 1.1,CYCLE 1 DAY 1,1,2023-12-28,42,PR,2,Y
ONCVIZ-001,ONCVIZ-001-04-0128,CONTROL,OVRLRESP,Overall Response per RECIST 1.1,CYCLE 2 DAY 1,2,2024-02-08,84,CR,1,Y
ONCVIZ-001,ONCVIZ-001-04-0128,CONTROL,OVRLRESP,Overall Response per RECIST 1.1,CYCLE 3 DAY 1,3,2024-03-21,126,SD,3,Y
ONCVIZ-001,ONCVIZ-001-04-0128,CONTROL,OVRLRESP,Overall Response per RECIST 1.1,CYCLE 4 DAY 1,4,2024-05-02,168,SD,3,Y
ONCVIZ-001,ONCVIZ-001-04-0128,CONTROL,OVRLRESP,Overall Response per RECIST 1.1,CYCLE 5 DAY 1,5,2024-06-13,210,SD,3,Y
ONCVIZ-001,ONCVIZ-001-04-0128,CONTROL,OVRLRESP,Overall Response per RECIST 1.1,CYCLE 6 DAY 1,6,2024-07-25,252,PD,4,Y
ONCVIZ-001,ONCVIZ-001-07-0129,CONTROL,OVRLRESP,Overall Response per RECIST 1.1,CYCLE 1 DAY 1,1,2023-07-04,42,SD,3,Y
ONCVIZ-001,ONCVIZ-001-07-0129,CONTROL,OVRLRESP,Overall Response per RECIST 1.1,CYCLE 2 DAY 1,2,2023-08-15,84,PR,2,Y
ONCVIZ-001,ONCVIZ-001-07-0129,CONTROL,OVRLRESP,Overall Response per RECIST 1.1,CYCLE 3 DAY 1,3,2023-09-26,126,SD,3,Y
ONCVIZ-001,ONCVIZ-001-07-0129,CONTROL,OVRLRESP,Overall Response per RECIST 1.1,CYCLE 4 DAY 1,4,2023-11-07,168,PR,2,Y
ONCVIZ-001,ONCVIZ-001-07-0129,CONTROL,OVRLRESP,Overall Response per RECIST 1.1,CYCLE 5 DAY 1,5,2023-12-19,210,CR,1,Y
ONCVIZ-001,ONCVIZ-001-07-0129,CONTROL,OVRLRESP,Overall Response per RECIST 1.1,CYCLE 6 DAY 1,6,2024-01-30,252,CR,1,Y
ONCVIZ-001,ONCVIZ-001-07-0129,CONTROL,OVRLRESP,Overall Response per RECIST 1.1,CYCLE 7 DAY 1,7,2024-03-12,294,CR,1,Y
ONCVIZ-001,ONCVIZ-001-07-0129,CONTROL,OVRLRESP,Overall Response per RECIST 1.1,CYCLE 8 DAY 1,8,2024-04-23,336,CR,1,Y
ONCVIZ-001,ONCVIZ-001-07-0129,CONTROL,OVRLRESP,Overall Response per RECIST 1.1,CYCLE 9 DAY 1,9,2024-06-04,378,CR,1,Y
ONCVIZ-001,ONCVIZ-001-07-0129,CONTROL,OVRLRESP,Overall Response per RECIST 1.1,CYCLE 10 DAY 1,10,2024-07-16,420,CR,1,Y
ONCVIZ-001,ONCVIZ-001-07-0129,CONTROL,OVRLRESP,Overall Response per RECIST 1.1,CYCLE 11 DAY 1,11,2024-08-27,462,SD,3,Y
ONCVIZ-001,ONCVIZ-001-07-0129,CONTROL,OVRLRESP,Overall Response per RECIST 1.1,CYCLE 12 DAY 1,12,2024-10-08,504,SD,3,Y
ONCVIZ-001,ONCVIZ-001-07-0129,CONTROL,OVRLRESP,Overall Response per RECIST 1.1,CYCLE 13 DAY 1,13,2024-11-19,546,SD,3,Y
ONCVIZ-001,ONCVIZ-001-09-0130,TREATMENT,OVRLRESP,Overall Response per RECIST 1.1,CYCLE 1 DAY 1,1,2023-02-23,42,PR,2,Y
ONCVIZ-001,ONCVIZ-001-09-0130,TREATMENT,OVRLRESP,Overall Response per RECIST 1.1,CYCLE 2 DAY 1,2,2023-04-06,84,SD,3,Y
ONCVIZ-001,ONCVIZ-001-09-0130,TREATMENT,OVRLRESP,Overall Response per RECIST 1.1,CYCLE 3 DAY 1,3,2023-05-18,126,SD,3,Y
ONCVIZ-001,ONCVIZ-001-09-0130,TREATMENT,OVRLRESP,Overall Response per RECIST 1.1,CYCLE 4 DAY 1,4,2023-06-29,168,SD,3,Y
ONCVIZ-001,ONCVIZ-001-09-0130,TREATMENT,OVRLRESP,Overall Response per RECIST 1.1,CYCLE 5 DAY 1,5,2023-08-10,210,SD,3,Y
ONCVIZ-001,ONCVIZ-001-09-0130,TREATMENT,OVRLRESP,Overall Response per RECIST 1.1,CYCLE 6 DAY 1,6,2023-09-21,252,SD,3,Y
ONCVIZ-001,ONCVIZ-001-09-0130,TREATMENT,OVRLRESP,Overall Response per RECIST 1.1,CYCLE 7 DAY 1,7,2023-11-02,294,SD,3,Y
ONCVIZ-001,ONCVIZ-001-09-0130,TREATMENT,OVRLRESP,Overall Response per RECIST 1.1,CYCLE 8 DAY 1,8,2023-12-14,336,SD,3,Y
ONCVIZ-001,ONCVIZ-001-09-0130,TREATMENT,OVRLRESP,Overall Response per RECIST 1.1,CYCLE 9 DAY 1,9,2024-01-25,378,SD,3,Y
ONCVIZ-001,ONCVIZ-001-09-0130,TREATMENT,OVRLRESP,Overall Response per RECIST 1.1,CYCLE 10 DAY 1,10,2024-03-07,420,PR,2,Y
ONCVIZ-001,ONCVIZ-001-09-0130,TREATMENT,OVRLRESP,Overall Response per RECIST 1.1,CYCLE 11 DAY 1,11,2024-04-18,462,PR,2,Y
ONCVIZ-001,ONCVIZ-001-09-0130,TREATMENT,OVRLRESP,Overall Response per RECIST 1.1,CYCLE 12 DAY 1,12,2024-05-30,504,CR,1,Y
ONCVIZ-001,ONCVIZ-001-09-0130,TREATMENT,OVRLRESP,Overall Response per RECIST 1.1,CYCLE 13 DAY 1,13,2024-07-11,546,CR,1,Y
ONCVIZ-001,ONCVIZ-001-09-0130,TREATMENT,OVRLRESP,Overall Response per RECIST 1.1,CYCLE 14 DAY 1,14,2024-08-22,588,CR,1,Y
ONCVIZ-001,ONCVIZ-001-09-0130,TREATMENT,OVRLRESP,Overall Response per RECIST 1.1,CYCLE 15 DAY 1,15,2024-10-03,630,CR,1,Y
ONCVIZ-001,ONCVIZ-001-09-0130,TREATMENT,OVRLRESP,Overall Response per RECIST 1.1,CYCLE 16 DAY 1,16,2024-11-14,672,PR,2,Y
ONCVIZ-001,ONCVIZ-001-09-0130,TREATMENT,OVRLRESP,Overall Response per RECIST 1.1,CYCLE 17 DAY 1,17,2024-12-26,714,PR,2,Y
ONCVIZ-001,ONCVIZ-001-09-0130,TREATMENT,OVRLRESP,Overall Response per RECIST 1.1,CYCLE 18 DAY 1,18,2025-02-06,756,PR,2,Y
ONCVIZ-001,ONCVIZ-001-09-0130,TREATMENT,OVRLRESP,Overall Response per RECIST 1.1,CYCLE 19 DAY 1,19,2025-03-20,798,CR,1,Y
ONCVIZ-001,ONCVIZ-001-09-0130,TREATMENT,OVRLRESP,Overall Response per RECIST 1.1,CYCLE 20 DAY 1,20,2025-05-01,840,CR,1,Y
ONCVIZ-001,ONCVIZ-001-09-0131,TREATMENT,OVRLRESP,Overall Response per RECIST 1.1,CYCLE 1 DAY 1,1,2023-11-29,42,SD,3,Y
ONCVIZ-001,ONCVIZ-001-09-0131,TREATMENT,OVRLRESP,Overall Response per RECIST 1.1,CYCLE 2 DAY 1,2,2024-01-10,84,SD,3,Y
ONCVIZ-001,ONCVIZ-001-09-0131,TREATMENT,OVRLRESP,Overall Response per RECIST 1.1,CYCLE 3 DAY 1,3,2024-02-21,126,PD,4,Y
ONCVIZ-001,ONCVIZ-001-16-0132,CONTROL,OVRLRESP,Overall Response per RECIST 1.1,CYCLE 1 DAY 1,1,2022-10-24,42,SD,3,Y
ONCVIZ-001,ONCVIZ-001-16-0132,CONTROL,OVRLRESP,Overall Response per RECIST 1.1,CYCLE 2 DAY 1,2,2022-12-05,84,PR,2,Y
ONCVIZ-001,ONCVIZ-001-16-0132,CONTROL,OVRLRESP,Overall Response per RECIST 1.1,CYCLE 3 DAY 1,3,2023-01-16,126,CR,1,Y
ONCVIZ-001,ONCVIZ-001-16-0132,CONTROL,OVRLRESP,Overall Response per RECIST 1.1,CYCLE 4 DAY 1,4,2023-02-27,168,CR,1,Y
ONCVIZ-001,ONCVIZ-001-16-0132,CONTROL,OVRLRESP,Overall Response per RECIST 1.1,CYCLE 5 DAY 1,5,2023-04-10,210,PR,2,Y
ONCVIZ-001,ONCVIZ-001-16-0132,CONTROL,OVRLRESP,Overall Response per RECIST 1.1,CYCLE 6 DAY 1,6,2023-05-22,252,PR,2,Y
ONCVIZ-001,ONCVIZ-001-16-0132,CONTROL,OVRLRESP,Overall Response per RECIST 1.1,CYCLE 7 DAY 1,7,2023-07-03,294,PR,2,Y
ONCVIZ-001,ONCVIZ-001-16-0132,CONTROL,OVRLRESP,Overall Response per RECIST 1.1,CYCLE 8 DAY 1,8,2023-08-14,336,CR,1,Y
ONCVIZ-001,ONCVIZ-001-16-0132,CONTROL,OVRLRESP,Overall Response per RECIST 1.1,CYCLE 9 DAY 1,9,2023-09-25,378,CR,1,Y
ONCVIZ-001,ONCVIZ-001-16-0132,CONTROL,OVRLRESP,Overall Response per RECIST 1.1,CYCLE 10 DAY 1,10,2023-11-06,420,CR,1,Y
ONCVIZ-001,ONCVIZ-001-16-0132,CONTROL,OVRLRESP,Overall Response per RECIST 1.1,CYCLE 11 DAY 1,11,2023-12-18,462,SD,3,Y
ONCVIZ-001,ONCVIZ-001-16-0132,CONTROL,OVRLRESP,Overall Response per RECIST 1.1,CYCLE 12 DAY 1,12,2024-01-29,504,SD,3,Y
ONCVIZ-001,ONCVIZ-001-20-0133,TREATMENT,OVRLRESP,Overall Response per RECIST 1.1,CYCLE 1 DAY 1,1,2023-12-24,42,SD,3,Y
ONCVIZ-001,ONCVIZ-001-20-0133,TREATMENT,OVRLRESP,Overall Response per RECIST 1.1,CYCLE 2 DAY 1,2,2024-02-04,84,SD,3,Y
ONCVIZ-001,ONCVIZ-001-20-0133,TREATMENT,OVRLRESP,Overall Response per RECIST 1.1,CYCLE 3 DAY 1,3,2024-03-17,126,PD,4,Y
ONCVIZ-001,ONCVIZ-001-06-0134,TREATMENT,OVRLRESP,Overall Response per RECIST 1.1,CYCLE 1 DAY 1,1,2023-08-07,42,CR,1,Y
ONCVIZ-001,ONCVIZ-001-19-0135,TREATMENT,OVRLRESP,Overall Response per RECIST 1.1,CYCLE 1 DAY 1,1,2022-10-18,42,PR,2,Y
ONCVIZ-001,ONCVIZ-001-19-0135,TREATMENT,OVRLRESP,Overall Response per RECIST 1.1,CYCLE 2 DAY 1,2,2022-11-29,84,SD,3,Y
ONCVIZ-001,ONCVIZ-001-19-0135,TREATMENT,OVRLRESP,Overall Response per RECIST 1.1,CYCLE 3 DAY 1,3,2023-01-10,126,PD,4,Y
ONCVIZ-001,ONCVIZ-001-03-0136,TREATMENT,OVRLRESP,Overall Response per RECIST 1.1,CYCLE 1 DAY 1,1,2023-10-01,42,PR,2,Y
ONCVIZ-001,ONCVIZ-001-03-0136,TREATMENT,OVRLRESP,Overall Response per RECIST 1.1,CYCLE 2 DAY 1,2,2023-11-12,84,PR,2,Y
ONCVIZ-001,ONCVIZ-001-03-0136,TREATMENT,OVRLRESP,Overall Response per RECIST 1.1,CYCLE 3 DAY 1,3,2023-12-24,126,CR,1,Y
ONCVIZ-001,ONCVIZ-001-03-0136,TREATMENT,OVRLRESP,Overall Response per RECIST 1.1,CYCLE 4 DAY 1,4,2024-02-04,168,CR,1,Y
ONCVIZ-001,ONCVIZ-001-03-0136,TREATMENT,OVRLRESP,Overall Response per RECIST 1.1,CYCLE 5 DAY 1,5,2024-03-17,210,PR,2,Y
ONCVIZ-001,ONCVIZ-001-03-0136,TREATMENT,OVRLRESP,Overall Response per RECIST 1.1,CYCLE 6 DAY 1,6,2024-04-28,252,SD,3,Y
ONCVIZ-001,ONCVIZ-001-03-0136,TREATMENT,OVRLRESP,Overall Response per RECIST 1.1,CYCLE 7 DAY 1,7,2024-06-09,294,PD,4,Y
ONCVIZ-001,ONCVIZ-001-15-0137,TREATMENT,OVRLRESP,Overall Response per RECIST 1.1,CYCLE 1 DAY 1,1,2023-08-04,42,PR,2,Y
ONCVIZ-001,ONCVIZ-001-15-0137,TREATMENT,OVRLRESP,Overall Response per RECIST 1.1,CYCLE 2 DAY 1,2,2023-09-15,84,PR,2,Y
ONCVIZ-001,ONCVIZ-001-15-0137,TREATMENT,OVRLRESP,Overall Response per RECIST 1.1,CYCLE 3 DAY 1,3,2023-10-27,126,PR,2,Y
ONCVIZ-001,ONCVIZ-001-15-0137,TREATMENT,OVRLRESP,Overall Response per RECIST 1.1,CYCLE 4 DAY 1,4,2023-12-08,168,SD,3,Y
ONCVIZ-001,ONCVIZ-001-15-0137,TREATMENT,OVRLRESP,Overall Response per RECIST 1.1,CYCLE 5 DAY 1,5,2024-01-19,210,SD,3,Y
ONCVIZ-001,ONCVIZ-001-15-0137,TREATMENT,OVRLRESP,Overall Response per RECIST 1.1,CYCLE 6 DAY 1,6,2024-03-01,252,PD,4,Y
ONCVIZ-001,ONCVIZ-001-09-0138,TREATMENT,OVRLRESP,Overall Response per RECIST 1.1,CYCLE 1 DAY 1,1,2023-05-28,42,SD,3,Y
ONCVIZ-001,ONCVIZ-001-09-0138,TREATMENT,OVRLRESP,Overall Response per RECIST 1.1,CYCLE 2 DAY 1,2,2023-07-09,84,PR,2,Y
ONCVIZ-001,ONCVIZ-001-09-0138,TREATMENT,OVRLRESP,Overall Response per RECIST 1.1,CYCLE 3 DAY 1,3,2023-08-20,126,PR,2,Y
ONCVIZ-001,ONCVIZ-001-09-0138,TREATMENT,OVRLRESP,Overall Response per RECIST 1.1,CYCLE 4 DAY 1,4,2023-10-01,168,SD,3,Y
ONCVIZ-001,ONCVIZ-001-09-0138,TREATMENT,OVRLRESP,Overall Response per RECIST 1.1,CYCLE 5 DAY 1,5,2023-11-12,210,SD,3,Y
ONCVIZ-001,ONCVIZ-001-09-0138,TREATMENT,OVRLRESP,Overall Response per RECIST 1.1,CYCLE 6 DAY 1,6,2023-12-24,252,PD,4,Y
ONCVIZ-001,ONCVIZ-001-05-0139,TREATMENT,OVRLRESP,Overall Response per RECIST 1.1,CYCLE 1 DAY 1,1,2022-08-25,42,PR,2,Y
ONCVIZ-001,ONCVIZ-001-05-0139,TREATMENT,OVRLRESP,Overall Response per RECIST 1.1,CYCLE 2 DAY 1,2,2022-10-06,84,PR,2,Y
ONCVIZ-001,ONCVIZ-001-05-0139,TREATMENT,OVRLRESP,Overall Response per RECIST 1.1,CYCLE 3 DAY 1,3,2022-11-17,126,PR,2,Y
ONCVIZ-001,ONCVIZ-001-05-0139,TREATMENT,OVRLRESP,Overall Response per RECIST 1.1,CYCLE 4 DAY 1,4,2022-12-29,168,PR,2,Y
ONCVIZ-001,ONCVIZ-001-05-0139,TREATMENT,OVRLRESP,Overall Response per RECIST 1.1,CYCLE 5 DAY 1,5,2023-02-09,210,PR,2,Y
ONCVIZ-001,ONCVIZ-001-05-0139,TREATMENT,OVRLRESP,Overall Response per RECIST 1.1,CYCLE 6 DAY 1,6,2023-03-23,252,PR,2,Y
ONCVIZ-001,ONCVIZ-001-05-0139,TREATMENT,OVRLRESP,Overall Response per RECIST 1.1,CYCLE 7 DAY 1,7,2023-05-04,294,SD,3,Y
ONCVIZ-001,ONCVIZ-001-05-0139,TREATMENT,OVRLRESP,Overall Response per RECIST 1.1,CYCLE 8 DAY 1,8,2023-06-15,336,SD,3,Y
ONCVIZ-001,ONCVIZ-001-05-0139,TREATMENT,OVRLRESP,Overall Response per RECIST 1.1,CYCLE 9 DAY 1,9,2023-07-27,378,SD,3,Y
ONCVIZ-001,ONCVIZ-001-05-0139,TREATMENT,OVRLRESP,Overall Response per RECIST 1.1,CYCLE 10 DAY 1,10,2023-09-07,420,CR,1,Y
ONCVIZ-001,ONCVIZ-001-05-0139,TREATMENT,OVRLRESP,Overall Response per RECIST 1.1,CYCLE 11 DAY 1,11,2023-10-19,462,CR,1,Y
ONCVIZ-001,ONCVIZ-001-05-0139,TREATMENT,OVRLRESP,Overall Response per RECIST 1.1,CYCLE 12 DAY 1,12,2023-11-30,504,CR,1,Y
ONCVIZ-001,ONCVIZ-001-05-0139,TREATMENT,OVRLRESP,Overall Response per RECIST 1.1,CYCLE 13 DAY 1,13,2024-01-11,546,PR,2,Y
ONCVIZ-001,ONCVIZ-001-05-0139,TREATMENT,OVRLRESP,Overall Response per RECIST 1.1,CYCLE 14 DAY 1,14,2024-02-22,588,SD,3,Y
ONCVIZ-001,ONCVIZ-001-05-0139,TREATMENT,OVRLRESP,Overall Response per RECIST 1.1,CYCLE 15 DAY 1,15,2024-04-04,630,PR,2,Y
ONCVIZ-001,ONCVIZ-001-05-0139,TREATMENT,OVRLRESP,Overall Response per RECIST 1.1,CYCLE 16 DAY 1,16,2024-05-16,672,PR,2,Y
ONCVIZ-001,ONCVIZ-001-05-0139,TREATMENT,OVRLRESP,Overall Response per RECIST 1.1,CYCLE 17 DAY 1,17,2024-06-27,714,PR,2,Y
ONCVIZ-001,ONCVIZ-001-05-0139,TREATMENT,OVRLRESP,Overall Response per RECIST 1.1,CYCLE 18 DAY 1,18,2024-08-08,756,SD,3,Y
ONCVIZ-001,ONCVIZ-001-05-0139,TREATMENT,OVRLRESP,Overall Response per RECIST 1.1,CYCLE 19 DAY 1,19,2024-09-19,798,PD,4,Y
ONCVIZ-001,ONCVIZ-001-02-0140,CONTROL,OVRLRESP,Overall Response per RECIST 1.1,CYCLE 1 DAY 1,1,2022-10-30,42,SD,3,Y
ONCVIZ-001,ONCVIZ-001-02-0140,CONTROL,OVRLRESP,Overall Response per RECIST 1.1,CYCLE 2 DAY 1,2,2022-12-11,84,SD,3,Y
ONCVIZ-001,ONCVIZ-001-02-0140,CONTROL,OVRLRESP,Overall Response per RECIST 1.1,CYCLE 3 DAY 1,3,2023-01-22,126,PD,4,Y
ONCVIZ-001,ONCVIZ-001-15-0141,CONTROL,OVRLRESP,Overall Response per RECIST 1.1,CYCLE 1 DAY 1,1,2023-12-13,42,PD,4,Y
ONCVIZ-001,ONCVIZ-001-03-0142,TREATMENT,OVRLRESP,Overall Response per RECIST 1.1,CYCLE 1 DAY 1,1,2023-07-23,42,PR,2,Y
ONCVIZ-001,ONCVIZ-001-03-0142,TREATMENT,OVRLRESP,Overall Response per RECIST 1.1,CYCLE 2 DAY 1,2,2023-09-03,84,PR,2,Y
ONCVIZ-001,ONCVIZ-001-03-0142,TREATMENT,OVRLRESP,Overall Response per RECIST 1.1,CYCLE 3 DAY 1,3,2023-10-15,126,SD,3,Y
ONCVIZ-001,ONCVIZ-001-03-0142,TREATMENT,OVRLRESP,Overall Response per RECIST 1.1,CYCLE 4 DAY 1,4,2023-11-26,168,PD,4,Y
ONCVIZ-001,ONCVIZ-001-03-0143,TREATMENT,OVRLRESP,Overall Response per RECIST 1.1,CYCLE 1 DAY 1,1,2022-10-29,42,SD,3,Y
ONCVIZ-001,ONCVIZ-001-03-0143,TREATMENT,OVRLRESP,Overall Response per RECIST 1.1,CYCLE 2 DAY 1,2,2022-12-10,84,SD,3,Y
ONCVIZ-001,ONCVIZ-001-03-0143,TREATMENT,OVRLRESP,Overall Response per RECIST 1.1,CYCLE 3 DAY 1,3,2023-01-21,126,SD,3,Y
ONCVIZ-001,ONCVIZ-001-03-0143,TREATMENT,OVRLRESP,Overall Response per RECIST 1.1,CYCLE 4 DAY 1,4,2023-03-04,168,PD,4,Y
ONCVIZ-001,ONCVIZ-001-06-0144,TREATMENT,OVRLRESP,Overall Response per RECIST 1.1,CYCLE 1 DAY 1,1,2023-04-30,42,CR,1,Y
ONCVIZ-001,ONCVIZ-001-11-0145,TREATMENT,OVRLRESP,Overall Response per RECIST 1.1,CYCLE 1 DAY 1,1,2022-10-18,42,SD,3,Y
ONCVIZ-001,ONCVIZ-001-11-0145,TREATMENT,OVRLRESP,Overall Response per RECIST 1.1,CYCLE 2 DAY 1,2,2022-11-29,84,PD,4,Y
ONCVIZ-001,ONCVIZ-001-11-0146,TREATMENT,OVRLRESP,Overall Response per RECIST 1.1,CYCLE 1 DAY 1,1,2023-05-05,42,SD,3,Y
ONCVIZ-001,ONCVIZ-001-11-0146,TREATMENT,OVRLRESP,Overall Response per RECIST 1.1,CYCLE 2 DAY 1,2,2023-06-16,84,PR,2,Y
ONCVIZ-001,ONCVIZ-001-11-0146,TREATMENT,OVRLRESP,Overall Response per RECIST 1.1,CYCLE 3 DAY 1,3,2023-07-28,126,PR,2,Y
ONCVIZ-001,ONCVIZ-001-11-0146,TREATMENT,OVRLRESP,Overall Response per RECIST 1.1,CYCLE 4 DAY 1,4,2023-09-08,168,PR,2,Y
ONCVIZ-001,ONCVIZ-001-11-0146,TREATMENT,OVRLRESP,Overall Response per RECIST 1.1,CYCLE 5 DAY 1,5,2023-10-20,210,PR,2,Y
ONCVIZ-001,ONCVIZ-001-11-0146,TREATMENT,OVRLRESP,Overall Response per RECIST 1.1,CYCLE 6 DAY 1,6,2023-12-01,252,PR,2,Y
ONCVIZ-001,ONCVIZ-001-11-0146,TREATMENT,OVRLRESP,Overall Response per RECIST 1.1,CYCLE 7 DAY 1,7,2024-01-12,294,CR,1,Y
ONCVIZ-001,ONCVIZ-001-11-0146,TREATMENT,OVRLRESP,Overall Response per RECIST 1.1,CYCLE 8 DAY 1,8,2024-02-23,336,CR,1,Y
ONCVIZ-001,ONCVIZ-001-11-0146,TREATMENT,OVRLRESP,Overall Response per RECIST 1.1,CYCLE 9 DAY 1,9,2024-04-05,378,SD,3,Y
ONCVIZ-001,ONCVIZ-001-11-0146,TREATMENT,OVRLRESP,Overall Response per RECIST 1.1,CYCLE 10 DAY 1,10,2024-05-17,420,SD,3,Y
ONCVIZ-001,ONCVIZ-001-11-0146,TREATMENT,OVRLRESP,Overall Response per RECIST 1.1,CYCLE 11 DAY 1,11,2024-06-28,462,SD,3,Y
ONCVIZ-001,ONCVIZ-001-11-0146,TREATMENT,OVRLRESP,Overall Response per RECIST 1.1,CYCLE 12 DAY 1,12,2024-08-09,504,PD,4,Y
ONCVIZ-001,ONCVIZ-001-03-0147,TREATMENT,OVRLRESP,Overall Response per RECIST 1.1,CYCLE 1 DAY 1,1,2023-07-06,42,PD,4,Y
ONCVIZ-001,ONCVIZ-001-12-0148,TREATMENT,OVRLRESP,Overall Response per RECIST 1.1,CYCLE 1 DAY 1,1,2023-08-02,42,PD,4,Y
ONCVIZ-001,ONCVIZ-001-20-0149,TREATMENT,OVRLRESP,Overall Response per RECIST 1.1,CYCLE 1 DAY 1,1,2023-05-21,42,PR,2,Y
ONCVIZ-001,ONCVIZ-001-20-0149,TREATMENT,OVRLRESP,Overall Response per RECIST 1.1,CYCLE 2 DAY 1,2,2023-07-02,84,PR,2,Y
ONCVIZ-001,ONCVIZ-001-20-0149,TREATMENT,OVRLRESP,Overall Response per RECIST 1.1,CYCLE 3 DAY 1,3,2023-08-13,126,PR,2,Y
ONCVIZ-001,ONCVIZ-001-20-0149,TREATMENT,OVRLRESP,Overall Response per RECIST 1.1,CYCLE 4 DAY 1,4,2023-09-24,168,PR,2,Y
ONCVIZ-001,ONCVIZ-001-20-0149,TREATMENT,OVRLRESP,Overall Response per RECIST 1.1,CYCLE 5 DAY 1,5,2023-11-05,210,PR,2,Y
ONCVIZ-001,ONCVIZ-001-20-0149,TREATMENT,OVRLRESP,Overall Response per RECIST 1.1,CYCLE 6 DAY 1,6,2023-12-17,252,PD,4,Y
ONCVIZ-001,ONCVIZ-001-10-0150,TREATMENT,OVRLRESP,Overall Response per RECIST 1.1,CYCLE 1 DAY 1,1,2023-06-15,42,PR,2,Y
ONCVIZ-001,ONCVIZ-001-10-0150,TREATMENT,OVRLRESP,Overall Response per RECIST 1.1,CYCLE 2 DAY 1,2,2023-07-27,84,PR,2,Y
ONCVIZ-001,ONCVIZ-001-10-0150,TREATMENT,OVRLRESP,Overall Response per RECIST 1.1,CYCLE 3 DAY 1,3,2023-09-07,126,CR,1,Y
ONCVIZ-001,ONCVIZ-001-10-0150,TREATMENT,OVRLRESP,Overall Response per RECIST 1.1,CYCLE 4 DAY 1,4,2023-10-19,168,CR,1,Y
ONCVIZ-001,ONCVIZ-001-10-0150,TREATMENT,OVRLRESP,Overall Response per RECIST 1.1,CYCLE 5 DAY 1,5,2023-11-30,210,CR,1,Y
ONCVIZ-001,ONCVIZ-001-10-0150,TREATMENT,OVRLRESP,Overall Response per RECIST 1.1,CYCLE 6 DAY 1,6,2024-01-11,252,CR,1,Y
ONCVIZ-001,ONCVIZ-001-10-0150,TREATMENT,OVRLRESP,Overall Response per RECIST 1.1,CYCLE 7 DAY 1,7,2024-02-22,294,CR,1,Y
ONCVIZ-001,ONCVIZ-001-17-0151,CONTROL,OVRLRESP,Overall Response per RECIST 1.1,CYCLE 1 DAY 1,1,2022-11-24,42,SD,3,Y
ONCVIZ-001,ONCVIZ-001-17-0151,CONTROL,OVRLRESP,Overall Response per RECIST 1.1,CYCLE 2 DAY 1,2,2023-01-05,84,SD,3,Y
ONCVIZ-001,ONCVIZ-001-17-0151,CONTROL,OVRLRESP,Overall Response per RECIST 1.1,CYCLE 3 DAY 1,3,2023-02-16,126,SD,3,Y
ONCVIZ-001,ONCVIZ-001-17-0151,CONTROL,OVRLRESP,Overall Response per RECIST 1.1,CYCLE 4 DAY 1,4,2023-03-30,168,PD,4,Y
ONCVIZ-001,ONCVIZ-001-20-0152,TREATMENT,OVRLRESP,Overall Response per RECIST 1.1,CYCLE 1 DAY 1,1,2023-10-05,42,CR,1,Y
ONCVIZ-001,ONCVIZ-001-20-0152,TREATMENT,OVRLRESP,Overall Response per RECIST 1.1,CYCLE 2 DAY 1,2,2023-11-16,84,CR,1,Y
ONCVIZ-001,ONCVIZ-001-20-0152,TREATMENT,OVRLRESP,Overall Response per RECIST 1.1,CYCLE 3 DAY 1,3,2023-12-28,126,CR,1,Y
ONCVIZ-001,ONCVIZ-001-20-0152,TREATMENT,OVRLRESP,Overall Response per RECIST 1.1,CYCLE 4 DAY 1,4,2024-02-08,168,CR,1,Y
ONCVIZ-001,ONCVIZ-001-20-0152,TREATMENT,OVRLRESP,Overall Response per RECIST 1.1,CYCLE 5 DAY 1,5,2024-03-21,210,CR,1,Y
ONCVIZ-001,ONCVIZ-001-20-0152,TREATMENT,OVRLRESP,Overall Response per RECIST 1.1,CYCLE 6 DAY 1,6,2024-05-02,252,CR,1,Y
ONCVIZ-001,ONCVIZ-001-20-0152,TREATMENT,OVRLRESP,Overall Response per RECIST 1.1,CYCLE 7 DAY 1,7,2024-06-13,294,CR,1,Y
ONCVIZ-001,ONCVIZ-001-20-0152,TREATMENT,OVRLRESP,Overall Response per RECIST 1.1,CYCLE 8 DAY 1,8,2024-07-25,336,PR,2,Y
ONCVIZ-001,ONCVIZ-001-20-0152,TREATMENT,OVRLRESP,Overall Response per RECIST 1.1,CYCLE 9 DAY 1,9,2024-09-05,378,PR,2,Y
ONCVIZ-001,ONCVIZ-001-20-0152,TREATMENT,OVRLRESP,Overall Response per RECIST 1.1,CYCLE 10 DAY 1,10,2024-10-17,420,PD,4,Y
ONCVIZ-001,ONCVIZ-001-02-0153,TREATMENT,OVRLRESP,Overall Response per RECIST 1.1,CYCLE 1 DAY 1,1,2023-05-01,42,PD,4,Y
ONCVIZ-001,ONCVIZ-001-15-0154,TREATMENT,OVRLRESP,Overall Response per RECIST 1.1,CYCLE 1 DAY 1,1,2023-12-18,42,PD,4,Y
ONCVIZ-001,ONCVIZ-001-05-0155,TREATMENT,OVRLRESP,Overall Response per RECIST 1.1,CYCLE 1 DAY 1,1,2022-07-19,42,PR,2,Y
ONCVIZ-001,ONCVIZ-001-05-0155,TREATMENT,OVRLRESP,Overall Response per RECIST 1.1,CYCLE 2 DAY 1,2,2022-08-30,84,PR,2,Y
ONCVIZ-001,ONCVIZ-001-05-0155,TREATMENT,OVRLRESP,Overall Response per RECIST 1.1,CYCLE 3 DAY 1,3,2022-10-11,126,PR,2,Y
ONCVIZ-001,ONCVIZ-001-05-0155,TREATMENT,OVRLRESP,Overall Response per RECIST 1.1,CYCLE 4 DAY 1,4,2022-11-22,168,CR,1,Y
ONCVIZ-001,ONCVIZ-001-05-0155,TREATMENT,OVRLRESP,Overall Response per RECIST 1.1,CYCLE 5 DAY 1,5,2023-01-03,210,CR,1,Y
ONCVIZ-001,ONCVIZ-001-05-0155,TREATMENT,OVRLRESP,Overall Response per RECIST 1.1,CYCLE 6 DAY 1,6,2023-02-14,252,CR,1,Y
ONCVIZ-001,ONCVIZ-001-05-0155,TREATMENT,OVRLRESP,Overall Response per RECIST 1.1,CYCLE 7 DAY 1,7,2023-03-28,294,CR,1,Y
ONCVIZ-001,ONCVIZ-001-05-0155,TREATMENT,OVRLRESP,Overall Response per RECIST 1.1,CYCLE 8 DAY 1,8,2023-05-09,336,CR,1,Y
ONCVIZ-001,ONCVIZ-001-05-0155,TREATMENT,OVRLRESP,Overall Response per RECIST 1.1,CYCLE 9 DAY 1,9,2023-06-20,378,CR,1,Y
ONCVIZ-001,ONCVIZ-001-05-0155,TREATMENT,OVRLRESP,Overall Response per RECIST 1.1,CYCLE 10 DAY 1,10,2023-08-01,420,CR,1,Y
ONCVIZ-001,ONCVIZ-001-05-0155,TREATMENT,OVRLRESP,Overall Response per RECIST 1.1,CYCLE 11 DAY 1,11,2023-09-12,462,CR,1,Y
ONCVIZ-001,ONCVIZ-001-05-0155,TREATMENT,OVRLRESP,Overall Response per RECIST 1.1,CYCLE 12 DAY 1,12,2023-10-24,504,PR,2,Y
ONCVIZ-001,ONCVIZ-001-05-0155,TREATMENT,OVRLRESP,Overall Response per RECIST 1.1,CYCLE 13 DAY 1,13,2023-12-05,546,CR,1,Y
ONCVIZ-001,ONCVIZ-001-05-0155,TREATMENT,OVRLRESP,Overall Response per RECIST 1.1,CYCLE 14 DAY 1,14,2024-01-16,588,CR,1,Y
ONCVIZ-001,ONCVIZ-001-05-0155,TREATMENT,OVRLRESP,Overall Response per RECIST 1.1,CYCLE 15 DAY 1,15,2024-02-27,630,PD,4,Y
ONCVIZ-001,ONCVIZ-001-05-0156,TREATMENT,OVRLRESP,Overall Response per RECIST 1.1,CYCLE 1 DAY 1,1,2023-09-23,42,SD,3,Y
ONCVIZ-001,ONCVIZ-001-05-0156,TREATMENT,OVRLRESP,Overall Response per RECIST 1.1,CYCLE 2 DAY 1,2,2023-11-04,84,SD,3,Y
ONCVIZ-001,ONCVIZ-001-05-0156,TREATMENT,OVRLRESP,Overall Response per RECIST 1.1,CYCLE 3 DAY 1,3,2023-12-16,126,PD,4,Y
ONCVIZ-001,ONCVIZ-001-17-0157,TREATMENT,OVRLRESP,Overall Response per RECIST 1.1,CYCLE 1 DAY 1,1,2023-03-08,42,PD,4,Y
ONCVIZ-001,ONCVIZ-001-14-0158,TREATMENT,OVRLRESP,Overall Response per RECIST 1.1,CYCLE 1 DAY 1,1,2022-11-29,42,PR,2,Y
ONCVIZ-001,ONCVIZ-001-14-0159,CONTROL,OVRLRESP,Overall Response per RECIST 1.1,CYCLE 1 DAY 1,1,2022-08-14,42,SD,3,Y
ONCVIZ-001,ONCVIZ-001-06-0160,TREATMENT,OVRLRESP,Overall Response per RECIST 1.1,CYCLE 1 DAY 1,1,2022-08-27,42,PR,2,Y
ONCVIZ-001,ONCVIZ-001-06-0160,TREATMENT,OVRLRESP,Overall Response per RECIST 1.1,CYCLE 2 DAY 1,2,2022-10-08,84,CR,1,Y
ONCVIZ-001,ONCVIZ-001-06-0160,TREATMENT,OVRLRESP,Overall Response per RECIST 1.1,CYCLE 3 DAY 1,3,2022-11-19,126,CR,1,Y
ONCVIZ-001,ONCVIZ-001-06-0160,TREATMENT,OVRLRESP,Overall Response per RECIST 1.1,CYCLE 4 DAY 1,4,2022-12-31,168,PR,2,Y
ONCVIZ-001,ONCVIZ-001-06-0160,TREATMENT,OVRLRESP,Overall Response per RECIST 1.1,CYCLE 5 DAY 1,5,2023-02-11,210,SD,3,Y
ONCVIZ-001,ONCVIZ-001-06-0160,TREATMENT,OVRLRESP,Overall Response per RECIST 1.1,CYCLE 6 DAY 1,6,2023-03-25,252,PR,2,Y
ONCVIZ-001,ONCVIZ-001-06-0160,TREATMENT,OVRLRESP,Overall Response per RECIST 1.1,CYCLE 7 DAY 1,7,2023-05-06,294,PR,2,Y
ONCVIZ-001,ONCVIZ-001-06-0160,TREATMENT,OVRLRESP,Overall Response per RECIST 1.1,CYCLE 8 DAY 1,8,2023-06-17,336,PD,4,Y
ONCVIZ-001,ONCVIZ-001-10-0161,TREATMENT,OVRLRESP,Overall Response per RECIST 1.1,CYCLE 1 DAY 1,1,2023-06-24,42,PR,2,Y
ONCVIZ-001,ONCVIZ-001-10-0161,TREATMENT,OVRLRESP,Overall Response per RECIST 1.1,CYCLE 2 DAY 1,2,2023-08-05,84,PR,2,Y
ONCVIZ-001,ONCVIZ-001-10-0161,TREATMENT,OVRLRESP,Overall Response per RECIST 1.1,CYCLE 3 DAY 1,3,2023-09-16,126,SD,3,Y
ONCVIZ-001,ONCVIZ-001-10-0161,TREATMENT,OVRLRESP,Overall Response per RECIST 1.1,CYCLE 4 DAY 1,4,2023-10-28,168,PD,4,Y
ONCVIZ-001,ONCVIZ-001-03-0162,TREATMENT,OVRLRESP,Overall Response per RECIST 1.1,CYCLE 1 DAY 1,1,2023-02-27,42,PR,2,Y
ONCVIZ-001,ONCVIZ-001-03-0162,TREATMENT,OVRLRESP,Overall Response per RECIST 1.1,CYCLE 2 DAY 1,2,2023-04-10,84,PR,2,Y
ONCVIZ-001,ONCVIZ-001-03-0162,TREATMENT,OVRLRESP,Overall Response per RECIST 1.1,CYCLE 3 DAY 1,3,2023-05-22,126,SD,3,Y
ONCVIZ-001,ONCVIZ-001-03-0162,TREATMENT,OVRLRESP,Overall Response per RECIST 1.1,CYCLE 4 DAY 1,4,2023-07-03,168,PD,4,Y
ONCVIZ-001,ONCVIZ-001-11-0163,CONTROL,OVRLRESP,Overall Response per RECIST 1.1,CYCLE 1 DAY 1,1,2023-06-26,42,PD,4,Y
ONCVIZ-001,ONCVIZ-001-18-0164,CONTROL,OVRLRESP,Overall Response per RECIST 1.1,CYCLE 1 DAY 1,1,2022-07-13,42,PD,4,Y
ONCVIZ-001,ONCVIZ-001-07-0165,CONTROL,OVRLRESP,Overall Response per RECIST 1.1,CYCLE 1 DAY 1,1,2023-03-10,42,PR,2,Y
ONCVIZ-001,ONCVIZ-001-07-0165,CONTROL,OVRLRESP,Overall Response per RECIST 1.1,CYCLE 2 DAY 1,2,2023-04-21,84,PR,2,Y
ONCVIZ-001,ONCVIZ-001-07-0165,CONTROL,OVRLRESP,Overall Response per RECIST 1.1,CYCLE 3 DAY 1,3,2023-06-02,126,PR,2,Y
ONCVIZ-001,ONCVIZ-001-07-0166,TREATMENT,OVRLRESP,Overall Response per RECIST 1.1,CYCLE 1 DAY 1,1,2023-01-13,42,PD,4,Y
ONCVIZ-001,ONCVIZ-001-01-0167,TREATMENT,OVRLRESP,Overall Response per RECIST 1.1,CYCLE 1 DAY 1,1,2022-09-30,42,PR,2,Y
ONCVIZ-001,ONCVIZ-001-01-0167,TREATMENT,OVRLRESP,Overall Response per RECIST 1.1,CYCLE 2 DAY 1,2,2022-11-11,84,CR,1,Y
ONCVIZ-001,ONCVIZ-001-01-0167,TREATMENT,OVRLRESP,Overall Response per RECIST 1.1,CYCLE 3 DAY 1,3,2022-12-23,126,CR,1,Y
ONCVIZ-001,ONCVIZ-001-01-0167,TREATMENT,OVRLRESP,Overall Response per RECIST 1.1,CYCLE 4 DAY 1,4,2023-02-03,168,CR,1,Y
ONCVIZ-001,ONCVIZ-001-01-0167,TREATMENT,OVRLRESP,Overall Response per RECIST 1.1,CYCLE 5 DAY 1,5,2023-03-17,210,PR,2,Y
ONCVIZ-001,ONCVIZ-001-01-0167,TREATMENT,OVRLRESP,Overall Response per RECIST 1.1,CYCLE 6 DAY 1,6,2023-04-28,252,PR,2,Y
ONCVIZ-001,ONCVIZ-001-01-0167,TREATMENT,OVRLRESP,Overall Response per RECIST 1.1,CYCLE 7 DAY 1,7,2023-06-09,294,PR,2,Y
ONCVIZ-001,ONCVIZ-001-01-0167,TREATMENT,OVRLRESP,Overall Response per RECIST 1.1,CYCLE 8 DAY 1,8,2023-07-21,336,PR,2,Y
ONCVIZ-001,ONCVIZ-001-01-0167,TREATMENT,OVRLRESP,Overall Response per RECIST 1.1,CYCLE 9 DAY 1,9,2023-09-01,378,PR,2,Y
ONCVIZ-001,ONCVIZ-001-16-0168,TREATMENT,OVRLRESP,Overall Response per RECIST 1.1,CYCLE 1 DAY 1,1,2023-03-28,42,SD,3,Y
ONCVIZ-001,ONCVIZ-001-16-0168,TREATMENT,OVRLRESP,Overall Response per RECIST 1.1,CYCLE 2 DAY 1,2,2023-05-09,84,PD,4,Y
ONCVIZ-001,ONCVIZ-001-19-0169,CONTROL,OVRLRESP,Overall Response per RECIST 1.1,CYCLE 1 DAY 1,1,2022-11-08,42,PD,4,Y
ONCVIZ-001,ONCVIZ-001-13-0170,TREATMENT,OVRLRESP,Overall Response per RECIST 1.1,CYCLE 1 DAY 1,1,2023-01-28,42,PR,2,Y
ONCVIZ-001,ONCVIZ-001-01-0171,TREATMENT,OVRLRESP,Overall Response per RECIST 1.1,CYCLE 1 DAY 1,1,2023-05-10,42,SD,3,Y
ONCVIZ-001,ONCVIZ-001-01-0171,TREATMENT,OVRLRESP,Overall Response per RECIST 1.1,CYCLE 2 DAY 1,2,2023-06-21,84,SD,3,Y
ONCVIZ-001,ONCVIZ-001-01-0171,TREATMENT,OVRLRESP,Overall Response per RECIST 1.1,CYCLE 3 DAY 1,3,2023-08-02,126,SD,3,Y
ONCVIZ-001,ONCVIZ-001-01-0171,TREATMENT,OVRLRESP,Overall Response per RECIST 1.1,CYCLE 4 DAY 1,4,2023-09-13,168,PD,4,Y
ONCVIZ-001,ONCVIZ-001-11-0172,TREATMENT,OVRLRESP,Overall Response per RECIST 1.1,CYCLE 1 DAY 1,1,2023-03-26,42,SD,3,Y
ONCVIZ-001,ONCVIZ-001-11-0172,TREATMENT,OVRLRESP,Overall Response per RECIST 1.1,CYCLE 2 DAY 1,2,2023-05-07,84,SD,3,Y
ONCVIZ-001,ONCVIZ-001-11-0172,TREATMENT,OVRLRESP,Overall Response per RECIST 1.1,CYCLE 3 DAY 1,3,2023-06-18,126,PD,4,Y
ONCVIZ-001,ONCVIZ-001-09-0173,TREATMENT,OVRLRESP,Overall Response per RECIST 1.1,CYCLE 1 DAY 1,1,2023-06-26,42,SD,3,Y
ONCVIZ-001,ONCVIZ-001-09-0173,TREATMENT,OVRLRESP,Overall Response per RECIST 1.1,CYCLE 2 DAY 1,2,2023-08-07,84,PD,4,Y
ONCVIZ-001,ONCVIZ-001-13-0174,TREATMENT,OVRLRESP,Overall Response per RECIST 1.1,CYCLE 1 DAY 1,1,2023-09-01,42,PD,4,Y
ONCVIZ-001,ONCVIZ-001-19-0175,TREATMENT,OVRLRESP,Overall Response per RECIST 1.1,CYCLE 1 DAY 1,1,2023-08-28,42,SD,3,Y
ONCVIZ-001,ONCVIZ-001-19-0175,TREATMENT,OVRLRESP,Overall Response per RECIST 1.1,CYCLE 2 DAY 1,2,2023-10-09,84,PD,4,Y
ONCVIZ-001,ONCVIZ-001-19-0176,TREATMENT,OVRLRESP,Overall Response per RECIST 1.1,CYCLE 1 DAY 1,1,2022-11-19,42,SD,3,Y
ONCVIZ-001,ONCVIZ-001-19-0176,TREATMENT,OVRLRESP,Overall Response per RECIST 1.1,CYCLE 2 DAY 1,2,2022-12-31,84,SD,3,Y
ONCVIZ-001,ONCVIZ-001-19-0176,TREATMENT,OVRLRESP,Overall Response per RECIST 1.1,CYCLE 3 DAY 1,3,2023-02-11,126,PR,2,Y
ONCVIZ-001,ONCVIZ-001-19-0176,TREATMENT,OVRLRESP,Overall Response per RECIST 1.1,CYCLE 4 DAY 1,4,2023-03-25,168,PR,2,Y
ONCVIZ-001,ONCVIZ-001-19-0176,TREATMENT,OVRLRESP,Overall Response per RECIST 1.1,CYCLE 5 DAY 1,5,2023-05-06,210,PR,2,Y
ONCVIZ-001,ONCVIZ-001-19-0176,TREATMENT,OVRLRESP,Overall Response per RECIST 1.1,CYCLE 6 DAY 1,6,2023-06-17,252,PR,2,Y
ONCVIZ-001,ONCVIZ-001-19-0176,TREATMENT,OVRLRESP,Overall Response per RECIST 1.1,CYCLE 7 DAY 1,7,2023-07-29,294,PR,2,Y
ONCVIZ-001,ONCVIZ-001-19-0176,TREATMENT,OVRLRESP,Overall Response per RECIST 1.1,CYCLE 8 DAY 1,8,2023-09-09,336,PR,2,Y
ONCVIZ-001,ONCVIZ-001-19-0176,TREATMENT,OVRLRESP,Overall Response per RECIST 1.1,CYCLE 9 DAY 1,9,2023-10-21,378,PR,2,Y
ONCVIZ-001,ONCVIZ-001-19-0176,TREATMENT,OVRLRESP,Overall Response per RECIST 1.1,CYCLE 10 DAY 1,10,2023-12-02,420,PR,2,Y
ONCVIZ-001,ONCVIZ-001-19-0176,TREATMENT,OVRLRESP,Overall Response per RECIST 1.1,CYCLE 11 DAY 1,11,2024-01-13,462,PR,2,Y
ONCVIZ-001,ONCVIZ-001-19-0176,TREATMENT,OVRLRESP,Overall Response per RECIST 1.1,CYCLE 12 DAY 1,12,2024-02-24,504,PR,2,Y
ONCVIZ-001,ONCVIZ-001-19-0176,TREATMENT,OVRLRESP,Overall Response per RECIST 1.1,CYCLE 13 DAY 1,13,2024-04-06,546,PR,2,Y
ONCVIZ-001,ONCVIZ-001-19-0176,TREATMENT,OVRLRESP,Overall Response per RECIST 1.1,CYCLE 14 DAY 1,14,2024-05-18,588,PD,4,Y
ONCVIZ-001,ONCVIZ-001-02-0177,TREATMENT,OVRLRESP,Overall Response per RECIST 1.1,CYCLE 1 DAY 1,1,2022-12-23,42,PD,4,Y
ONCVIZ-001,ONCVIZ-001-15-0178,TREATMENT,OVRLRESP,Overall Response per RECIST 1.1,CYCLE 1 DAY 1,1,2023-10-02,42,SD,3,Y
ONCVIZ-001,ONCVIZ-001-15-0178,TREATMENT,OVRLRESP,Overall Response per RECIST 1.1,CYCLE 2 DAY 1,2,2023-11-13,84,SD,3,Y
ONCVIZ-001,ONCVIZ-001-15-0178,TREATMENT,OVRLRESP,Overall Response per RECIST 1.1,CYCLE 3 DAY 1,3,2023-12-25,126,SD,3,Y
ONCVIZ-001,ONCVIZ-001-15-0178,TREATMENT,OVRLRESP,Overall Response per RECIST 1.1,CYCLE 4 DAY 1,4,2024-02-05,168,PD,4,Y
ONCVIZ-001,ONCVIZ-001-07-0179,TREATMENT,OVRLRESP,Overall Response per RECIST 1.1,CYCLE 1 DAY 1,1,2023-11-09,42,SD,3,Y
ONCVIZ-001,ONCVIZ-001-07-0179,TREATMENT,OVRLRESP,Overall Response per RECIST 1.1,CYCLE 2 DAY 1,2,2023-12-21,84,SD,3,Y
ONCVIZ-001,ONCVIZ-001-07-0179,TREATMENT,OVRLRESP,Overall Response per RECIST 1.1,CYCLE 3 DAY 1,3,2024-02-01,126,SD,3,Y
ONCVIZ-001,ONCVIZ-001-07-0179,TREATMENT,OVRLRESP,Overall Response per RECIST 1.1,CYCLE 4 DAY 1,4,2024-03-14,168,SD,3,Y
ONCVIZ-001,ONCVIZ-001-07-0179,TREATMENT,OVRLRESP,Overall Response per RECIST 1.1,CYCLE 5 DAY 1,5,2024-04-25,210,PD,4,Y
ONCVIZ-001,ONCVIZ-001-19-0180,TREATMENT,OVRLRESP,Overall Response per RECIST 1.1,CYCLE 1 DAY 1,1,2022-10-13,42,SD,3,Y
ONCVIZ-001,ONCVIZ-001-19-0180,TREATMENT,OVRLRESP,Overall Response per RECIST 1.1,CYCLE 2 DAY 1,2,2022-11-24,84,PD,4,Y
ONCVIZ-001,ONCVIZ-001-01-0181,CONTROL,OVRLRESP,Overall Response per RECIST 1.1,CYCLE 1 DAY 1,1,2023-12-22,42,PR,2,Y
ONCVIZ-001,ONCVIZ-001-12-0182,TREATMENT,OVRLRESP,Overall Response per RECIST 1.1,CYCLE 1 DAY 1,1,2023-11-06,42,SD,3,Y
ONCVIZ-001,ONCVIZ-001-12-0182,TREATMENT,OVRLRESP,Overall Response per RECIST 1.1,CYCLE 2 DAY 1,2,2023-12-18,84,SD,3,Y
ONCVIZ-001,ONCVIZ-001-12-0182,TREATMENT,OVRLRESP,Overall Response per RECIST 1.1,CYCLE 3 DAY 1,3,2024-01-29,126,PD,4,Y
ONCVIZ-001,ONCVIZ-001-03-0183,TREATMENT,OVRLRESP,Overall Response per RECIST 1.1,CYCLE 1 DAY 1,1,2023-12-27,42,PR,2,Y
ONCVIZ-001,ONCVIZ-001-03-0183,TREATMENT,OVRLRESP,Overall Response per RECIST 1.1,CYCLE 2 DAY 1,2,2024-02-07,84,PR,2,Y
ONCVIZ-001,ONCVIZ-001-03-0183,TREATMENT,OVRLRESP,Overall Response per RECIST 1.1,CYCLE 3 DAY 1,3,2024-03-20,126,PR,2,Y
ONCVIZ-001,ONCVIZ-001-03-0183,TREATMENT,OVRLRESP,Overall Response per RECIST 1.1,CYCLE 4 DAY 1,4,2024-05-01,168,SD,3,Y
ONCVIZ-001,ONCVIZ-001-03-0183,TREATMENT,OVRLRESP,Overall Response per RECIST 1.1,CYCLE 5 DAY 1,5,2024-06-12,210,SD,3,Y
ONCVIZ-001,ONCVIZ-001-03-0183,TREATMENT,OVRLRESP,Overall Response per RECIST 1.1,CYCLE 6 DAY 1,6,2024-07-24,252,SD,3,Y
ONCVIZ-001,ONCVIZ-001-03-0183,TREATMENT,OVRLRESP,Overall Response per RECIST 1.1,CYCLE 7 DAY 1,7,2024-09-04,294,PD,4,Y
ONCVIZ-001,ONCVIZ-001-17-0184,CONTROL,OVRLRESP,Overall Response per RECIST 1.1,CYCLE 1 DAY 1,1,2023-06-02,42,PD,4,Y
ONCVIZ-001,ONCVIZ-001-05-0185,TREATMENT,OVRLRESP,Overall Response per RECIST 1.1,CYCLE 1 DAY 1,1,2022-11-05,42,SD,3,Y
ONCVIZ-001,ONCVIZ-001-05-0185,TREATMENT,OVRLRESP,Overall Response per RECIST 1.1,CYCLE 2 DAY 1,2,2022-12-17,84,SD,3,Y
ONCVIZ-001,ONCVIZ-001-05-0185,TREATMENT,OVRLRESP,Overall Response per RECIST 1.1,CYCLE 3 DAY 1,3,2023-01-28,126,PD,4,Y
ONCVIZ-001,ONCVIZ-001-08-0186,TREATMENT,OVRLRESP,Overall Response per RECIST 1.1,CYCLE 1 DAY 1,1,2023-04-30,42,PD,4,Y
ONCVIZ-001,ONCVIZ-001-15-0187,CONTROL,OVRLRESP,Overall Response per RECIST 1.1,CYCLE 1 DAY 1,1,2022-11-30,42,PR,2,Y
ONCVIZ-001,ONCVIZ-001-15-0187,CONTROL,OVRLRESP,Overall Response per RECIST 1.1,CYCLE 2 DAY 1,2,2023-01-11,84,PR,2,Y
ONCVIZ-001,ONCVIZ-001-15-0187,CONTROL,OVRLRESP,Overall Response per RECIST 1.1,CYCLE 3 DAY 1,3,2023-02-22,126,PR,2,Y
ONCVIZ-001,ONCVIZ-001-15-0187,CONTROL,OVRLRESP,Overall Response per RECIST 1.1,CYCLE 4 DAY 1,4,2023-04-05,168,PR,2,Y
ONCVIZ-001,ONCVIZ-001-15-0187,CONTROL,OVRLRESP,Overall Response per RECIST 1.1,CYCLE 5 DAY 1,5,2023-05-17,210,PR,2,Y
ONCVIZ-001,ONCVIZ-001-15-0187,CONTROL,OVRLRESP,Overall Response per RECIST 1.1,CYCLE 6 DAY 1,6,2023-06-28,252,PR,2,Y
ONCVIZ-001,ONCVIZ-001-15-0187,CONTROL,OVRLRESP,Overall Response per RECIST 1.1,CYCLE 7 DAY 1,7,2023-08-09,294,PR,2,Y
ONCVIZ-001,ONCVIZ-001-15-0187,CONTROL,OVRLRESP,Overall Response per RECIST 1.1,CYCLE 8 DAY 1,8,2023-09-20,336,PR,2,Y
ONCVIZ-001,ONCVIZ-001-15-0187,CONTROL,OVRLRESP,Overall Response per RECIST 1.1,CYCLE 9 DAY 1,9,2023-11-01,378,PR,2,Y
ONCVIZ-001,ONCVIZ-001-15-0187,CONTROL,OVRLRESP,Overall Response per RECIST 1.1,CYCLE 10 DAY 1,10,2023-12-13,420,PR,2,Y
ONCVIZ-001,ONCVIZ-001-15-0187,CONTROL,OVRLRESP,Overall Response per RECIST 1.1,CYCLE 11 DAY 1,11,2024-01-24,462,PR,2,Y
ONCVIZ-001,ONCVIZ-001-15-0187,CONTROL,OVRLRESP,Overall Response per RECIST 1.1,CYCLE 12 DAY 1,12,2024-03-06,504,PD,4,Y
ONCVIZ-001,ONCVIZ-001-10-0188,TREATMENT,OVRLRESP,Overall Response per RECIST 1.1,CYCLE 1 DAY 1,1,2022-11-12,42,PD,4,Y
ONCVIZ-001,ONCVIZ-001-11-0189,TREATMENT,OVRLRESP,Overall Response per RECIST 1.1,CYCLE 1 DAY 1,1,2023-07-08,42,PD,4,Y
ONCVIZ-001,ONCVIZ-001-06-0190,TREATMENT,OVRLRESP,Overall Response per RECIST 1.1,CYCLE 1 DAY 1,1,2023-05-20,42,CR,1,Y
ONCVIZ-001,ONCVIZ-001-06-0190,TREATMENT,OVRLRESP,Overall Response per RECIST 1.1,CYCLE 2 DAY 1,2,2023-07-01,84,CR,1,Y
ONCVIZ-001,ONCVIZ-001-06-0190,TREATMENT,OVRLRESP,Overall Response per RECIST 1.1,CYCLE 3 DAY 1,3,2023-08-12,126,SD,3,Y
ONCVIZ-001,ONCVIZ-001-06-0190,TREATMENT,OVRLRESP,Overall Response per RECIST 1.1,CYCLE 4 DAY 1,4,2023-09-23,168,PD,4,Y
ONCVIZ-001,ONCVIZ-001-10-0191,TREATMENT,OVRLRESP,Overall Response per RECIST 1.1,CYCLE 1 DAY 1,1,2023-07-07,42,SD,3,Y
ONCVIZ-001,ONCVIZ-001-10-0191,TREATMENT,OVRLRESP,Overall Response per RECIST 1.1,CYCLE 2 DAY 1,2,2023-08-18,84,PD,4,Y
ONCVIZ-001,ONCVIZ-001-06-0192,CONTROL,OVRLRESP,Overall Response per RECIST 1.1,CYCLE 1 DAY 1,1,2023-09-20,42,PD,4,Y
ONCVIZ-001,ONCVIZ-001-17-0193,TREATMENT,OVRLRESP,Overall Response per RECIST 1.1,CYCLE 1 DAY 1,1,2023-10-04,42,PR,2,Y
ONCVIZ-001,ONCVIZ-001-17-0193,TREATMENT,OVRLRESP,Overall Response per RECIST 1.1,CYCLE 2 DAY 1,2,2023-11-15,84,PR,2,Y
ONCVIZ-001,ONCVIZ-001-17-0193,TREATMENT,OVRLRESP,Overall Response per RECIST 1.1,CYCLE 3 DAY 1,3,2023-12-27,126,PR,2,Y
ONCVIZ-001,ONCVIZ-001-17-0193,TREATMENT,OVRLRESP,Overall Response per RECIST 1.1,CYCLE 4 DAY 1,4,2024-02-07,168,CR,1,Y
ONCVIZ-001,ONCVIZ-001-17-0193,TREATMENT,OVRLRESP,Overall Response per RECIST 1.1,CYCLE 5 DAY 1,5,2024-03-20,210,CR,1,Y
ONCVIZ-001,ONCVIZ-001-17-0193,TREATMENT,OVRLRESP,Overall Response per RECIST 1.1,CYCLE 6 DAY 1,6,2024-05-01,252,PD,4,Y
ONCVIZ-001,ONCVIZ-001-06-0194,TREATMENT,OVRLRESP,Overall Response per RECIST 1.1,CYCLE 1 DAY 1,1,2023-12-04,42,SD,3,Y
ONCVIZ-001,ONCVIZ-001-06-0194,TREATMENT,OVRLRESP,Overall Response per RECIST 1.1,CYCLE 2 DAY 1,2,2024-01-15,84,SD,3,Y
ONCVIZ-001,ONCVIZ-001-06-0194,TREATMENT,OVRLRESP,Overall Response per RECIST 1.1,CYCLE 3 DAY 1,3,2024-02-26,126,SD,3,Y
ONCVIZ-001,ONCVIZ-001-06-0194,TREATMENT,OVRLRESP,Overall Response per RECIST 1.1,CYCLE 4 DAY 1,4,2024-04-08,168,PR,2,Y
ONCVIZ-001,ONCVIZ-001-06-0194,TREATMENT,OVRLRESP,Overall Response per RECIST 1.1,CYCLE 5 DAY 1,5,2024-05-20,210,PR,2,Y
ONCVIZ-001,ONCVIZ-001-06-0194,TREATMENT,OVRLRESP,Overall Response per RECIST 1.1,CYCLE 6 DAY 1,6,2024-07-01,252,PR,2,Y
ONCVIZ-001,ONCVIZ-001-06-0194,TREATMENT,OVRLRESP,Overall Response per RECIST 1.1,CYCLE 7 DAY 1,7,2024-08-12,294,SD,3,Y
ONCVIZ-001,ONCVIZ-001-06-0194,TREATMENT,OVRLRESP,Overall Response per RECIST 1.1,CYCLE 8 DAY 1,8,2024-09-23,336,PR,2,Y
ONCVIZ-001,ONCVIZ-001-06-0194,TREATMENT,OVRLRESP,Overall Response per RECIST 1.1,CYCLE 9 DAY 1,9,2024-11-04,378,SD,3,Y
ONCVIZ-001,ONCVIZ-001-06-0194,TREATMENT,OVRLRESP,Overall Response per RECIST 1.1,CYCLE 10 DAY 1,10,2024-12-16,420,SD,3,Y
ONCVIZ-001,ONCVIZ-001-06-0194,TREATMENT,OVRLRESP,Overall Response per RECIST 1.1,CYCLE 11 DAY 1,11,2025-01-27,462,SD,3,Y
ONCVIZ-001,ONCVIZ-001-06-0194,TREATMENT,OVRLRESP,Overall Response per RECIST 1.1,CYCLE 12 DAY 1,12,2025-03-10,504,SD,3,Y
ONCVIZ-001,ONCVIZ-001-06-0194,TREATMENT,OVRLRESP,Overall Response per RECIST 1.1,CYCLE 13 DAY 1,13,2025-04-21,546,PD,4,Y
ONCVIZ-001,ONCVIZ-001-01-0195,CONTROL,OVRLRESP,Overall Response per RECIST 1.1,CYCLE 1 DAY 1,1,2023-08-02,42,PD,4,Y
ONCVIZ-001,ONCVIZ-001-05-0196,TREATMENT,OVRLRESP,Overall Response per RECIST 1.1,CYCLE 1 DAY 1,1,2023-06-27,42,SD,3,Y
ONCVIZ-001,ONCVIZ-001-05-0196,TREATMENT,OVRLRESP,Overall Response per RECIST 1.1,CYCLE 2 DAY 1,2,2023-08-08,84,SD,3,Y
ONCVIZ-001,ONCVIZ-001-05-0196,TREATMENT,OVRLRESP,Overall Response per RECIST 1.1,CYCLE 3 DAY 1,3,2023-09-19,126,PD,4,Y
ONCVIZ-001,ONCVIZ-001-08-0197,TREATMENT,OVRLRESP,Overall Response per RECIST 1.1,CYCLE 1 DAY 1,1,2023-06-25,42,SD,3,Y
ONCVIZ-001,ONCVIZ-001-08-0197,TREATMENT,OVRLRESP,Overall Response per RECIST 1.1,CYCLE 2 DAY 1,2,2023-08-06,84,CR,1,Y
ONCVIZ-001,ONCVIZ-001-08-0197,TREATMENT,OVRLRESP,Overall Response per RECIST 1.1,CYCLE 3 DAY 1,3,2023-09-17,126,CR,1,Y
ONCVIZ-001,ONCVIZ-001-08-0197,TREATMENT,OVRLRESP,Overall Response per RECIST 1.1,CYCLE 4 DAY 1,4,2023-10-29,168,CR,1,Y
ONCVIZ-001,ONCVIZ-001-08-0197,TREATMENT,OVRLRESP,Overall Response per RECIST 1.1,CYCLE 5 DAY 1,5,2023-12-10,210,CR,1,Y
ONCVIZ-001,ONCVIZ-001-08-0197,TREATMENT,OVRLRESP,Overall Response per RECIST 1.1,CYCLE 6 DAY 1,6,2024-01-21,252,CR,1,Y
ONCVIZ-001,ONCVIZ-001-08-0197,TREATMENT,OVRLRESP,Overall Response per RECIST 1.1,CYCLE 7 DAY 1,7,2024-03-03,294,CR,1,Y
ONCVIZ-001,ONCVIZ-001-08-0197,TREATMENT,OVRLRESP,Overall Response per RECIST 1.1,CYCLE 8 DAY 1,8,2024-04-14,336,CR,1,Y
ONCVIZ-001,ONCVIZ-001-08-0197,TREATMENT,OVRLRESP,Overall Response per RECIST 1.1,CYCLE 9 DAY 1,9,2024-05-26,378,CR,1,Y
ONCVIZ-001,ONCVIZ-001-08-0197,TREATMENT,OVRLRESP,Overall Response per RECIST 1.1,CYCLE 10 DAY 1,10,2024-07-07,420,CR,1,Y
ONCVIZ-001,ONCVIZ-001-08-0197,TREATMENT,OVRLRESP,Overall Response per RECIST 1.1,CYCLE 11 DAY 1,11,2024-08-18,462,CR,1,Y
ONCVIZ-001,ONCVIZ-001-08-0197,TREATMENT,OVRLRESP,Overall Response per RECIST 1.1,CYCLE 12 DAY 1,12,2024-09-29,504,PR,2,Y
ONCVIZ-001,ONCVIZ-001-08-0197,TREATMENT,OVRLRESP,Overall Response per RECIST 1.1,CYCLE 13 DAY 1,13,2024-11-10,546,PR,2,Y
ONCVIZ-001,ONCVIZ-001-08-0197,TREATMENT,OVRLRESP,Overall Response per RECIST 1.1,CYCLE 14 DAY 1,14,2024-12-22,588,PR,2,Y
ONCVIZ-001,ONCVIZ-001-08-0197,TREATMENT,OVRLRESP,Overall Response per RECIST 1.1,CYCLE 15 DAY 1,15,2025-02-02,630,PR,2,Y
ONCVIZ-001,ONCVIZ-001-08-0197,TREATMENT,OVRLRESP,Overall Response per RECIST 1.1,CYCLE 16 DAY 1,16,2025-03-16,672,PR,2,Y
ONCVIZ-001,ONCVIZ-001-08-0197,TREATMENT,OVRLRESP,Overall Response per RECIST 1.1,CYCLE 17 DAY 1,17,2025-04-27,714,SD,3,Y
ONCVIZ-001,ONCVIZ-001-08-0197,TREATMENT,OVRLRESP,Overall Response per RECIST 1.1,CYCLE 18 DAY 1,18,2025-06-08,756,PD,4,Y
ONCVIZ-001,ONCVIZ-001-18-0198,TREATMENT,OVRLRESP,Overall Response per RECIST 1.1,CYCLE 1 DAY 1,1,2023-12-22,42,PR,2,Y
ONCVIZ-001,ONCVIZ-001-18-0198,TREATMENT,OVRLRESP,Overall Response per RECIST 1.1,CYCLE 2 DAY 1,2,2024-02-02,84,PR,2,Y
ONCVIZ-001,ONCVIZ-001-18-0198,TREATMENT,OVRLRESP,Overall Response per RECIST 1.1,CYCLE 3 DAY 1,3,2024-03-15,126,PD,4,Y
ONCVIZ-001,ONCVIZ-001-07-0199,TREATMENT,OVRLRESP,Overall Response per RECIST 1.1,CYCLE 1 DAY 1,1,2023-05-02,42,PR,2,Y
ONCVIZ-001,ONCVIZ-001-07-0199,TREATMENT,OVRLRESP,Overall Response per RECIST 1.1,CYCLE 2 DAY 1,2,2023-06-13,84,SD,3,Y
ONCVIZ-001,ONCVIZ-001-07-0199,TREATMENT,OVRLRESP,Overall Response per RECIST 1.1,CYCLE 3 DAY 1,3,2023-07-25,126,PD,4,Y
ONCVIZ-001,ONCVIZ-001-08-0200,CONTROL,OVRLRESP,Overall Response per RECIST 1.1,CYCLE 1 DAY 1,1,2022-10-13,42,SD,3,Y
ONCVIZ-001,ONCVIZ-001-17-0201,TREATMENT,OVRLRESP,Overall Response per RECIST 1.1,CYCLE 1 DAY 1,1,2022-11-05,42,SD,3,Y
ONCVIZ-001,ONCVIZ-001-17-0201,TREATMENT,OVRLRESP,Overall Response per RECIST 1.1,CYCLE 2 DAY 1,2,2022-12-17,84,PR,2,Y
ONCVIZ-001,ONCVIZ-001-17-0201,TREATMENT,OVRLRESP,Overall Response per RECIST 1.1,CYCLE 3 DAY 1,3,2023-01-28,126,SD,3,Y
ONCVIZ-001,ONCVIZ-001-17-0201,TREATMENT,OVRLRESP,Overall Response per RECIST 1.1,CYCLE 4 DAY 1,4,2023-03-11,168,SD,3,Y
ONCVIZ-001,ONCVIZ-001-17-0201,TREATMENT,OVRLRESP,Overall Response per RECIST 1.1,CYCLE 5 DAY 1,5,2023-04-22,210,SD,3,Y
ONCVIZ-001,ONCVIZ-001-17-0201,TREATMENT,OVRLRESP,Overall Response per RECIST 1.1,CYCLE 6 DAY 1,6,2023-06-03,252,SD,3,Y
ONCVIZ-001,ONCVIZ-001-17-0201,TREATMENT,OVRLRESP,Overall Response per RECIST 1.1,CYCLE 7 DAY 1,7,2023-07-15,294,SD,3,Y
ONCVIZ-001,ONCVIZ-001-17-0201,TREATMENT,OVRLRESP,Overall Response per RECIST 1.1,CYCLE 8 DAY 1,8,2023-08-26,336,SD,3,Y
ONCVIZ-001,ONCVIZ-001-17-0201,TREATMENT,OVRLRESP,Overall Response per RECIST 1.1,CYCLE 9 DAY 1,9,2023-10-07,378,PR,2,Y
ONCVIZ-001,ONCVIZ-001-17-0201,TREATMENT,OVRLRESP,Overall Response per RECIST 1.1,CYCLE 10 DAY 1,10,2023-11-18,420,PR,2,Y
ONCVIZ-001,ONCVIZ-001-17-0201,TREATMENT,OVRLRESP,Overall Response per RECIST 1.1,CYCLE 11 DAY 1,11,2023-12-30,462,PR,2,Y
ONCVIZ-001,ONCVIZ-001-17-0201,TREATMENT,OVRLRESP,Overall Response per RECIST 1.1,CYCLE 12 DAY 1,12,2024-02-10,504,PR,2,Y
ONCVIZ-001,ONCVIZ-001-17-0201,TREATMENT,OVRLRESP,Overall Response per RECIST 1.1,CYCLE 13 DAY 1,13,2024-03-23,546,PR,2,Y
ONCVIZ-001,ONCVIZ-001-17-0201,TREATMENT,OVRLRESP,Overall Response per RECIST 1.1,CYCLE 14 DAY 1,14,2024-05-04,588,PR,2,Y
ONCVIZ-001,ONCVIZ-001-17-0201,TREATMENT,OVRLRESP,Overall Response per RECIST 1.1,CYCLE 15 DAY 1,15,2024-06-15,630,PR,2,Y
ONCVIZ-001,ONCVIZ-001-17-0201,TREATMENT,OVRLRESP,Overall Response per RECIST 1.1,CYCLE 16 DAY 1,16,2024-07-27,672,PR,2,Y
ONCVIZ-001,ONCVIZ-001-17-0201,TREATMENT,OVRLRESP,Overall Response per RECIST 1.1,CYCLE 17 DAY 1,17,2024-09-07,714,CR,1,Y
ONCVIZ-001,ONCVIZ-001-17-0201,TREATMENT,OVRLRESP,Overall Response per RECIST 1.1,CYCLE 18 DAY 1,18,2024-10-19,756,CR,1,Y
ONCVIZ-001,ONCVIZ-001-17-0201,TREATMENT,OVRLRESP,Overall Response per RECIST 1.1,CYCLE 19 DAY 1,19,2024-11-30,798,CR,1,Y
ONCVIZ-001,ONCVIZ-001-17-0201,TREATMENT,OVRLRESP,Overall Response per RECIST 1.1,CYCLE 20 DAY 1,20,2025-01-11,840,CR,1,Y
ONCVIZ-001,ONCVIZ-001-17-0201,TREATMENT,OVRLRESP,Overall Response per RECIST 1.1,CYCLE 21 DAY 1,21,2025-02-22,882,CR,1,Y
ONCVIZ-001,ONCVIZ-001-17-0201,TREATMENT,OVRLRESP,Overall Response per RECIST 1.1,CYCLE 22 DAY 1,22,2025-04-05,924,CR,1,Y
ONCVIZ-001,ONCVIZ-001-17-0201,TREATMENT,OVRLRESP,Overall Response per RECIST 1.1,CYCLE 23 DAY 1,23,2025-05-17,966,CR,1,Y
ONCVIZ-001,ONCVIZ-001-17-0201,TREATMENT,OVRLRESP,Overall Response per RECIST 1.1,CYCLE 24 DAY 1,24,2025-06-28,1008,CR,1,Y
ONCVIZ-001,ONCVIZ-001-17-0201,TREATMENT,OVRLRESP,Overall Response per RECIST 1.1,CYCLE 25 DAY 1,25,2025-08-09,1050,CR,1,Y
ONCVIZ-001,ONCVIZ-001-17-0201,TREATMENT,OVRLRESP,Overall Response per RECIST 1.1,CYCLE 26 DAY 1,26,2025-09-20,1092,PR,2,Y
ONCVIZ-001,ONCVIZ-001-17-0201,TREATMENT,OVRLRESP,Overall Response per RECIST 1.1,CYCLE 27 DAY 1,27,2025-11-01,1134,PR,2,Y
ONCVIZ-001,ONCVIZ-001-17-0201,TREATMENT,OVRLRESP,Overall Response per RECIST 1.1,CYCLE 28 DAY 1,28,2025-12-13,1176,SD,3,Y
ONCVIZ-001,ONCVIZ-001-17-0201,TREATMENT,OVRLRESP,Overall Response per RECIST 1.1,CYCLE 29 DAY 1,29,2026-01-24,1218,SD,3,Y
ONCVIZ-001,ONCVIZ-001-12-0202,CONTROL,OVRLRESP,Overall Response per RECIST 1.1,CYCLE 1 DAY 1,1,2022-10-13,42,SD,3,Y
ONCVIZ-001,ONCVIZ-001-12-0202,CONTROL,OVRLRESP,Overall Response per RECIST 1.1,CYCLE 2 DAY 1,2,2022-11-24,84,SD,3,Y
ONCVIZ-001,ONCVIZ-001-12-0202,CONTROL,OVRLRESP,Overall Response per RECIST 1.1,CYCLE 3 DAY 1,3,2023-01-05,126,SD,3,Y
ONCVIZ-001,ONCVIZ-001-12-0202,CONTROL,OVRLRESP,Overall Response per RECIST 1.1,CYCLE 4 DAY 1,4,2023-02-16,168,PD,4,Y
ONCVIZ-001,ONCVIZ-001-14-0203,CONTROL,OVRLRESP,Overall Response per RECIST 1.1,CYCLE 1 DAY 1,1,2022-07-16,42,PD,4,Y
ONCVIZ-001,ONCVIZ-001-05-0204,CONTROL,OVRLRESP,Overall Response per RECIST 1.1,CYCLE 1 DAY 1,1,2023-02-01,42,SD,3,Y
ONCVIZ-001,ONCVIZ-001-05-0204,CONTROL,OVRLRESP,Overall Response per RECIST 1.1,CYCLE 2 DAY 1,2,2023-03-15,84,PD,4,Y
ONCVIZ-001,ONCVIZ-001-12-0205,TREATMENT,OVRLRESP,Overall Response per RECIST 1.1,CYCLE 1 DAY 1,1,2023-04-07,42,SD,3,Y
ONCVIZ-001,ONCVIZ-001-12-0205,TREATMENT,OVRLRESP,Overall Response per RECIST 1.1,CYCLE 2 DAY 1,2,2023-05-19,84,PD,4,Y
ONCVIZ-001,ONCVIZ-001-16-0206,TREATMENT,OVRLRESP,Overall Response per RECIST 1.1,CYCLE 1 DAY 1,1,2022-08-24,42,PR,2,Y
ONCVIZ-001,ONCVIZ-001-16-0206,TREATMENT,OVRLRESP,Overall Response per RECIST 1.1,CYCLE 2 DAY 1,2,2022-10-05,84,SD,3,Y
ONCVIZ-001,ONCVIZ-001-16-0206,TREATMENT,OVRLRESP,Overall Response per RECIST 1.1,CYCLE 3 DAY 1,3,2022-11-16,126,SD,3,Y
ONCVIZ-001,ONCVIZ-001-16-0206,TREATMENT,OVRLRESP,Overall Response per RECIST 1.1,CYCLE 4 DAY 1,4,2022-12-28,168,SD,3,Y
ONCVIZ-001,ONCVIZ-001-16-0206,TREATMENT,OVRLRESP,Overall Response per RECIST 1.1,CYCLE 5 DAY 1,5,2023-02-08,210,SD,3,Y
ONCVIZ-001,ONCVIZ-001-16-0206,TREATMENT,OVRLRESP,Overall Response per RECIST 1.1,CYCLE 6 DAY 1,6,2023-03-22,252,SD,3,Y
ONCVIZ-001,ONCVIZ-001-16-0206,TREATMENT,OVRLRESP,Overall Response per RECIST 1.1,CYCLE 7 DAY 1,7,2023-05-03,294,SD,3,Y
ONCVIZ-001,ONCVIZ-001-16-0206,TREATMENT,OVRLRESP,Overall Response per RECIST 1.1,CYCLE 8 DAY 1,8,2023-06-14,336,SD,3,Y
ONCVIZ-001,ONCVIZ-001-16-0206,TREATMENT,OVRLRESP,Overall Response per RECIST 1.1,CYCLE 9 DAY 1,9,2023-07-26,378,SD,3,Y
ONCVIZ-001,ONCVIZ-001-16-0206,TREATMENT,OVRLRESP,Overall Response per RECIST 1.1,CYCLE 10 DAY 1,10,2023-09-06,420,SD,3,Y
ONCVIZ-001,ONCVIZ-001-16-0206,TREATMENT,OVRLRESP,Overall Response per RECIST 1.1,CYCLE 11 DAY 1,11,2023-10-18,462,PR,2,Y
ONCVIZ-001,ONCVIZ-001-17-0207,TREATMENT,OVRLRESP,Overall Response per RECIST 1.1,CYCLE 1 DAY 1,1,2022-09-06,42,PD,4,Y
ONCVIZ-001,ONCVIZ-001-16-0208,TREATMENT,OVRLRESP,Overall Response per RECIST 1.1,CYCLE 1 DAY 1,1,2023-06-14,42,PR,2,Y
ONCVIZ-001,ONCVIZ-001-16-0208,TREATMENT,OVRLRESP,Overall Response per RECIST 1.1,CYCLE 2 DAY 1,2,2023-07-26,84,SD,3,Y
ONCVIZ-001,ONCVIZ-001-16-0208,TREATMENT,OVRLRESP,Overall Response per RECIST 1.1,CYCLE 3 DAY 1,3,2023-09-06,126,SD,3,Y
ONCVIZ-001,ONCVIZ-001-16-0208,TREATMENT,OVRLRESP,Overall Response per RECIST 1.1,CYCLE 4 DAY 1,4,2023-10-18,168,PD,4,Y
ONCVIZ-001,ONCVIZ-001-04-0209,CONTROL,OVRLRESP,Overall Response per RECIST 1.1,CYCLE 1 DAY 1,1,2023-08-07,42,SD,3,Y
ONCVIZ-001,ONCVIZ-001-04-0209,CONTROL,OVRLRESP,Overall Response per RECIST 1.1,CYCLE 2 DAY 1,2,2023-09-18,84,SD,3,Y
ONCVIZ-001,ONCVIZ-001-04-0209,CONTROL,OVRLRESP,Overall Response per RECIST 1.1,CYCLE 3 DAY 1,3,2023-10-30,126,SD,3,Y
ONCVIZ-001,ONCVIZ-001-04-0209,CONTROL,OVRLRESP,Overall Response per RECIST 1.1,CYCLE 4 DAY 1,4,2023-12-11,168,SD,3,Y
ONCVIZ-001,ONCVIZ-001-04-0209,CONTROL,OVRLRESP,Overall Response per RECIST 1.1,CYCLE 5 DAY 1,5,2024-01-22,210,PD,4,Y
ONCVIZ-001,ONCVIZ-001-07-0210,TREATMENT,OVRLRESP,Overall Response per RECIST 1.1,CYCLE 1 DAY 1,1,2023-09-22,42,PD,4,Y
ONCVIZ-001,ONCVIZ-001-17-0211,TREATMENT,OVRLRESP,Overall Response per RECIST 1.1,CYCLE 1 DAY 1,1,2022-11-06,42,PR,2,Y
ONCVIZ-001,ONCVIZ-001-17-0211,TREATMENT,OVRLRESP,Overall Response per RECIST 1.1,CYCLE 2 DAY 1,2,2022-12-18,84,PR,2,Y
ONCVIZ-001,ONCVIZ-001-17-0211,TREATMENT,OVRLRESP,Overall Response per RECIST 1.1,CYCLE 3 DAY 1,3,2023-01-29,126,PR,2,Y
ONCVIZ-001,ONCVIZ-001-10-0212,TREATMENT,OVRLRESP,Overall Response per RECIST 1.1,CYCLE 1 DAY 1,1,2023-05-19,42,PR,2,Y
ONCVIZ-001,ONCVIZ-001-10-0212,TREATMENT,OVRLRESP,Overall Response per RECIST 1.1,CYCLE 2 DAY 1,2,2023-06-30,84,PD,4,Y
ONCVIZ-001,ONCVIZ-001-05-0213,TREATMENT,OVRLRESP,Overall Response per RECIST 1.1,CYCLE 1 DAY 1,1,2023-08-18,42,SD,3,Y
ONCVIZ-001,ONCVIZ-001-05-0213,TREATMENT,OVRLRESP,Overall Response per RECIST 1.1,CYCLE 2 DAY 1,2,2023-09-29,84,SD,3,Y
ONCVIZ-001,ONCVIZ-001-05-0213,TREATMENT,OVRLRESP,Overall Response per RECIST 1.1,CYCLE 3 DAY 1,3,2023-11-10,126,PD,4,Y
ONCVIZ-001,ONCVIZ-001-19-0214,TREATMENT,OVRLRESP,Overall Response per RECIST 1.1,CYCLE 1 DAY 1,1,2023-05-03,42,SD,3,Y
ONCVIZ-001,ONCVIZ-001-19-0214,TREATMENT,OVRLRESP,Overall Response per RECIST 1.1,CYCLE 2 DAY 1,2,2023-06-14,84,SD,3,Y
ONCVIZ-001,ONCVIZ-001-19-0214,TREATMENT,OVRLRESP,Overall Response per RECIST 1.1,CYCLE 3 DAY 1,3,2023-07-26,126,PD,4,Y
ONCVIZ-001,ONCVIZ-001-15-0215,TREATMENT,OVRLRESP,Overall Response per RECIST 1.1,CYCLE 1 DAY 1,1,2022-07-31,42,PD,4,Y
ONCVIZ-001,ONCVIZ-001-03-0216,TREATMENT,OVRLRESP,Overall Response per RECIST 1.1,CYCLE 1 DAY 1,1,2022-10-25,42,PD,4,Y
ONCVIZ-001,ONCVIZ-001-10-0217,CONTROL,OVRLRESP,Overall Response per RECIST 1.1,CYCLE 1 DAY 1,1,2022-12-01,42,SD,3,Y
ONCVIZ-001,ONCVIZ-001-10-0217,CONTROL,OVRLRESP,Overall Response per RECIST 1.1,CYCLE 2 DAY 1,2,2023-01-12,84,PD,4,Y
ONCVIZ-001,ONCVIZ-001-15-0218,TREATMENT,OVRLRESP,Overall Response per RECIST 1.1,CYCLE 1 DAY 1,1,2023-06-30,42,PR,2,Y
ONCVIZ-001,ONCVIZ-001-15-0218,TREATMENT,OVRLRESP,Overall Response per RECIST 1.1,CYCLE 2 DAY 1,2,2023-08-11,84,PD,4,Y
ONCVIZ-001,ONCVIZ-001-07-0219,CONTROL,OVRLRESP,Overall Response per RECIST 1.1,CYCLE 1 DAY 1,1,2023-04-03,42,PR,2,Y
ONCVIZ-001,ONCVIZ-001-07-0219,CONTROL,OVRLRESP,Overall Response per RECIST 1.1,CYCLE 2 DAY 1,2,2023-05-15,84,SD,3,Y
ONCVIZ-001,ONCVIZ-001-09-0220,TREATMENT,OVRLRESP,Overall Response per RECIST 1.1,CYCLE 1 DAY 1,1,2023-06-13,42,CR,1,Y
ONCVIZ-001,ONCVIZ-001-09-0220,TREATMENT,OVRLRESP,Overall Response per RECIST 1.1,CYCLE 2 DAY 1,2,2023-07-25,84,CR,1,Y
ONCVIZ-001,ONCVIZ-001-09-0220,TREATMENT,OVRLRESP,Overall Response per RECIST 1.1,CYCLE 3 DAY 1,3,2023-09-05,126,SD,3,Y
ONCVIZ-001,ONCVIZ-001-03-0221,TREATMENT,OVRLRESP,Overall Response per RECIST 1.1,CYCLE 1 DAY 1,1,2023-02-15,42,SD,3,Y
ONCVIZ-001,ONCVIZ-001-03-0221,TREATMENT,OVRLRESP,Overall Response per RECIST 1.1,CYCLE 2 DAY 1,2,2023-03-29,84,SD,3,Y
ONCVIZ-001,ONCVIZ-001-03-0221,TREATMENT,OVRLRESP,Overall Response per RECIST 1.1,CYCLE 3 DAY 1,3,2023-05-10,126,PD,4,Y
ONCVIZ-001,ONCVIZ-001-04-0222,TREATMENT,OVRLRESP,Overall Response per RECIST 1.1,CYCLE 1 DAY 1,1,2023-08-03,42,PR,2,Y
ONCVIZ-001,ONCVIZ-001-04-0222,TREATMENT,OVRLRESP,Overall Response per RECIST 1.1,CYCLE 2 DAY 1,2,2023-09-14,84,PD,4,Y
ONCVIZ-001,ONCVIZ-001-15-0223,TREATMENT,OVRLRESP,Overall Response per RECIST 1.1,CYCLE 1 DAY 1,1,2023-12-29,42,PR,2,Y
ONCVIZ-001,ONCVIZ-001-15-0223,TREATMENT,OVRLRESP,Overall Response per RECIST 1.1,CYCLE 2 DAY 1,2,2024-02-09,84,PR,2,Y
ONCVIZ-001,ONCVIZ-001-15-0223,TREATMENT,OVRLRESP,Overall Response per RECIST 1.1,CYCLE 3 DAY 1,3,2024-03-22,126,PR,2,Y
ONCVIZ-001,ONCVIZ-001-15-0223,TREATMENT,OVRLRESP,Overall Response per RECIST 1.1,CYCLE 4 DAY 1,4,2024-05-03,168,PR,2,Y
ONCVIZ-001,ONCVIZ-001-15-0223,TREATMENT,OVRLRESP,Overall Response per RECIST 1.1,CYCLE 5 DAY 1,5,2024-06-14,210,CR,1,Y
ONCVIZ-001,ONCVIZ-001-15-0223,TREATMENT,OVRLRESP,Overall Response per RECIST 1.1,CYCLE 6 DAY 1,6,2024-07-26,252,CR,1,Y
ONCVIZ-001,ONCVIZ-001-15-0223,TREATMENT,OVRLRESP,Overall Response per RECIST 1.1,CYCLE 7 DAY 1,7,2024-09-06,294,CR,1,Y
ONCVIZ-001,ONCVIZ-001-15-0223,TREATMENT,OVRLRESP,Overall Response per RECIST 1.1,CYCLE 8 DAY 1,8,2024-10-18,336,CR,1,Y
ONCVIZ-001,ONCVIZ-001-15-0223,TREATMENT,OVRLRESP,Overall Response per RECIST 1.1,CYCLE 9 DAY 1,9,2024-11-29,378,SD,3,Y
ONCVIZ-001,ONCVIZ-001-15-0223,TREATMENT,OVRLRESP,Overall Response per RECIST 1.1,CYCLE 10 DAY 1,10,2025-01-10,420,PD,4,Y
ONCVIZ-001,ONCVIZ-001-01-0224,TREATMENT,OVRLRESP,Overall Response per RECIST 1.1,CYCLE 1 DAY 1,1,2023-01-02,42,PR,2,Y
ONCVIZ-001,ONCVIZ-001-01-0224,TREATMENT,OVRLRESP,Overall Response per RECIST 1.1,CYCLE 2 DAY 1,2,2023-02-13,84,PR,2,Y
ONCVIZ-001,ONCVIZ-001-01-0224,TREATMENT,OVRLRESP,Overall Response per RECIST 1.1,CYCLE 3 DAY 1,3,2023-03-27,126,PD,4,Y
ONCVIZ-001,ONCVIZ-001-11-0225,TREATMENT,OVRLRESP,Overall Response per RECIST 1.1,CYCLE 1 DAY 1,1,2022-11-18,42,PD,4,Y
ONCVIZ-001,ONCVIZ-001-05-0226,TREATMENT,OVRLRESP,Overall Response per RECIST 1.1,CYCLE 1 DAY 1,1,2022-09-22,42,PR,2,Y
ONCVIZ-001,ONCVIZ-001-05-0226,TREATMENT,OVRLRESP,Overall Response per RECIST 1.1,CYCLE 2 DAY 1,2,2022-11-03,84,SD,3,Y
ONCVIZ-001,ONCVIZ-001-05-0226,TREATMENT,OVRLRESP,Overall Response per RECIST 1.1,CYCLE 3 DAY 1,3,2022-12-15,126,SD,3,Y
ONCVIZ-001,ONCVIZ-001-05-0226,TREATMENT,OVRLRESP,Overall Response per RECIST 1.1,CYCLE 4 DAY 1,4,2023-01-26,168,PD,4,Y
ONCVIZ-001,ONCVIZ-001-14-0227,TREATMENT,OVRLRESP,Overall Response per RECIST 1.1,CYCLE 1 DAY 1,1,2023-11-25,42,CR,1,Y
ONCVIZ-001,ONCVIZ-001-14-0227,TREATMENT,OVRLRESP,Overall Response per RECIST 1.1,CYCLE 2 DAY 1,2,2024-01-06,84,CR,1,Y
ONCVIZ-001,ONCVIZ-001-14-0227,TREATMENT,OVRLRESP,Overall Response per RECIST 1.1,CYCLE 3 DAY 1,3,2024-02-17,126,CR,1,Y
ONCVIZ-001,ONCVIZ-001-15-0228,CONTROL,OVRLRESP,Overall Response per RECIST 1.1,CYCLE 1 DAY 1,1,2023-07-19,42,PR,2,Y
ONCVIZ-001,ONCVIZ-001-15-0228,CONTROL,OVRLRESP,Overall Response per RECIST 1.1,CYCLE 2 DAY 1,2,2023-08-30,84,PR,2,Y
ONCVIZ-001,ONCVIZ-001-15-0228,CONTROL,OVRLRESP,Overall Response per RECIST 1.1,CYCLE 3 DAY 1,3,2023-10-11,126,PR,2,Y
ONCVIZ-001,ONCVIZ-001-15-0228,CONTROL,OVRLRESP,Overall Response per RECIST 1.1,CYCLE 4 DAY 1,4,2023-11-22,168,SD,3,Y
ONCVIZ-001,ONCVIZ-001-15-0228,CONTROL,OVRLRESP,Overall Response per RECIST 1.1,CYCLE 5 DAY 1,5,2024-01-03,210,PD,4,Y
ONCVIZ-001,ONCVIZ-001-13-0229,TREATMENT,OVRLRESP,Overall Response per RECIST 1.1,CYCLE 1 DAY 1,1,2022-07-15,42,PR,2,Y
ONCVIZ-001,ONCVIZ-001-14-0230,TREATMENT,OVRLRESP,Overall Response per RECIST 1.1,CYCLE 1 DAY 1,1,2023-11-16,42,PD,4,Y
ONCVIZ-001,ONCVIZ-001-08-0231,CONTROL,OVRLRESP,Overall Response per RECIST 1.1,CYCLE 1 DAY 1,1,2022-09-04,42,SD,3,Y
ONCVIZ-001,ONCVIZ-001-08-0231,CONTROL,OVRLRESP,Overall Response per RECIST 1.1,CYCLE 2 DAY 1,2,2022-10-16,84,CR,1,Y
ONCVIZ-001,ONCVIZ-001-08-0231,CONTROL,OVRLRESP,Overall Response per RECIST 1.1,CYCLE 3 DAY 1,3,2022-11-27,126,PR,2,Y
ONCVIZ-001,ONCVIZ-001-08-0231,CONTROL,OVRLRESP,Overall Response per RECIST 1.1,CYCLE 4 DAY 1,4,2023-01-08,168,SD,3,Y
ONCVIZ-001,ONCVIZ-001-08-0231,CONTROL,OVRLRESP,Overall Response per RECIST 1.1,CYCLE 5 DAY 1,5,2023-02-19,210,SD,3,Y
ONCVIZ-001,ONCVIZ-001-08-0231,CONTROL,OVRLRESP,Overall Response per RECIST 1.1,CYCLE 6 DAY 1,6,2023-04-02,252,PR,2,Y
ONCVIZ-001,ONCVIZ-001-08-0231,CONTROL,OVRLRESP,Overall Response per RECIST 1.1,CYCLE 7 DAY 1,7,2023-05-14,294,PR,2,Y
ONCVIZ-001,ONCVIZ-001-08-0231,CONTROL,OVRLRESP,Overall Response per RECIST 1.1,CYCLE 8 DAY 1,8,2023-06-25,336,CR,1,Y
ONCVIZ-001,ONCVIZ-001-08-0231,CONTROL,OVRLRESP,Overall Response per RECIST 1.1,CYCLE 9 DAY 1,9,2023-08-06,378,CR,1,Y
ONCVIZ-001,ONCVIZ-001-08-0231,CONTROL,OVRLRESP,Overall Response per RECIST 1.1,CYCLE 10 DAY 1,10,2023-09-17,420,CR,1,Y
ONCVIZ-001,ONCVIZ-001-08-0231,CONTROL,OVRLRESP,Overall Response per RECIST 1.1,CYCLE 11 DAY 1,11,2023-10-29,462,CR,1,Y
ONCVIZ-001,ONCVIZ-001-08-0231,CONTROL,OVRLRESP,Overall Response per RECIST 1.1,CYCLE 12 DAY 1,12,2023-12-10,504,CR,1,Y
ONCVIZ-001,ONCVIZ-001-08-0231,CONTROL,OVRLRESP,Overall Response per RECIST 1.1,CYCLE 13 DAY 1,13,2024-01-21,546,PR,2,Y
ONCVIZ-001,ONCVIZ-001-08-0231,CONTROL,OVRLRESP,Overall Response per RECIST 1.1,CYCLE 14 DAY 1,14,2024-03-03,588,SD,3,Y
ONCVIZ-001,ONCVIZ-001-08-0231,CONTROL,OVRLRESP,Overall Response per RECIST 1.1,CYCLE 15 DAY 1,15,2024-04-14,630,SD,3,Y
ONCVIZ-001,ONCVIZ-001-08-0231,CONTROL,OVRLRESP,Overall Response per RECIST 1.1,CYCLE 16 DAY 1,16,2024-05-26,672,SD,3,Y
ONCVIZ-001,ONCVIZ-001-08-0231,CONTROL,OVRLRESP,Overall Response per RECIST 1.1,CYCLE 17 DAY 1,17,2024-07-07,714,SD,3,Y
ONCVIZ-001,ONCVIZ-001-08-0231,CONTROL,OVRLRESP,Overall Response per RECIST 1.1,CYCLE 18 DAY 1,18,2024-08-18,756,SD,3,Y
ONCVIZ-001,ONCVIZ-001-08-0231,CONTROL,OVRLRESP,Overall Response per RECIST 1.1,CYCLE 19 DAY 1,19,2024-09-29,798,PR,2,Y
ONCVIZ-001,ONCVIZ-001-08-0231,CONTROL,OVRLRESP,Overall Response per RECIST 1.1,CYCLE 20 DAY 1,20,2024-11-10,840,PR,2,Y
ONCVIZ-001,ONCVIZ-001-08-0231,CONTROL,OVRLRESP,Overall Response per RECIST 1.1,CYCLE 21 DAY 1,21,2024-12-22,882,PR,2,Y
ONCVIZ-001,ONCVIZ-001-08-0231,CONTROL,OVRLRESP,Overall Response per RECIST 1.1,CYCLE 22 DAY 1,22,2025-02-02,924,SD,3,Y
ONCVIZ-001,ONCVIZ-001-20-0232,TREATMENT,OVRLRESP,Overall Response per RECIST 1.1,CYCLE 1 DAY 1,1,2022-08-27,42,CR,1,Y
ONCVIZ-001,ONCVIZ-001-20-0232,TREATMENT,OVRLRESP,Overall Response per RECIST 1.1,CYCLE 2 DAY 1,2,2022-10-08,84,CR,1,Y
ONCVIZ-001,ONCVIZ-001-20-0232,TREATMENT,OVRLRESP,Overall Response per RECIST 1.1,CYCLE 3 DAY 1,3,2022-11-19,126,CR,1,Y
ONCVIZ-001,ONCVIZ-001-20-0232,TREATMENT,OVRLRESP,Overall Response per RECIST 1.1,CYCLE 4 DAY 1,4,2022-12-31,168,CR,1,Y
ONCVIZ-001,ONCVIZ-001-20-0232,TREATMENT,OVRLRESP,Overall Response per RECIST 1.1,CYCLE 5 DAY 1,5,2023-02-11,210,CR,1,Y
ONCVIZ-001,ONCVIZ-001-20-0232,TREATMENT,OVRLRESP,Overall Response per RECIST 1.1,CYCLE 6 DAY 1,6,2023-03-25,252,CR,1,Y
ONCVIZ-001,ONCVIZ-001-20-0232,TREATMENT,OVRLRESP,Overall Response per RECIST 1.1,CYCLE 7 DAY 1,7,2023-05-06,294,CR,1,Y
ONCVIZ-001,ONCVIZ-001-20-0232,TREATMENT,OVRLRESP,Overall Response per RECIST 1.1,CYCLE 8 DAY 1,8,2023-06-17,336,CR,1,Y
ONCVIZ-001,ONCVIZ-001-20-0232,TREATMENT,OVRLRESP,Overall Response per RECIST 1.1,CYCLE 9 DAY 1,9,2023-07-29,378,CR,1,Y
ONCVIZ-001,ONCVIZ-001-20-0232,TREATMENT,OVRLRESP,Overall Response per RECIST 1.1,CYCLE 10 DAY 1,10,2023-09-09,420,CR,1,Y
ONCVIZ-001,ONCVIZ-001-20-0232,TREATMENT,OVRLRESP,Overall Response per RECIST 1.1,CYCLE 11 DAY 1,11,2023-10-21,462,SD,3,Y
ONCVIZ-001,ONCVIZ-001-20-0232,TREATMENT,OVRLRESP,Overall Response per RECIST 1.1,CYCLE 12 DAY 1,12,2023-12-02,504,PD,4,Y
ONCVIZ-001,ONCVIZ-001-18-0233,CONTROL,OVRLRESP,Overall Response per RECIST 1.1,CYCLE 1 DAY 1,1,2023-06-21,42,SD,3,Y
ONCVIZ-001,ONCVIZ-001-18-0233,CONTROL,OVRLRESP,Overall Response per RECIST 1.1,CYCLE 2 DAY 1,2,2023-08-02,84,SD,3,Y
ONCVIZ-001,ONCVIZ-001-18-0233,CONTROL,OVRLRESP,Overall Response per RECIST 1.1,CYCLE 3 DAY 1,3,2023-09-13,126,PD,4,Y
ONCVIZ-001,ONCVIZ-001-01-0234,TREATMENT,OVRLRESP,Overall Response per RECIST 1.1,CYCLE 1 DAY 1,1,2023-02-22,42,SD,3,Y
ONCVIZ-001,ONCVIZ-001-01-0234,TREATMENT,OVRLRESP,Overall Response per RECIST 1.1,CYCLE 2 DAY 1,2,2023-04-05,84,PD,4,Y
ONCVIZ-001,ONCVIZ-001-09-0235,CONTROL,OVRLRESP,Overall Response per RECIST 1.1,CYCLE 1 DAY 1,1,2023-03-20,42,SD,3,Y
ONCVIZ-001,ONCVIZ-001-09-0235,CONTROL,OVRLRESP,Overall Response per RECIST 1.1,CYCLE 2 DAY 1,2,2023-05-01,84,SD,3,Y
ONCVIZ-001,ONCVIZ-001-09-0235,CONTROL,OVRLRESP,Overall Response per RECIST 1.1,CYCLE 3 DAY 1,3,2023-06-12,126,SD,3,Y
ONCVIZ-001,ONCVIZ-001-09-0235,CONTROL,OVRLRESP,Overall Response per RECIST 1.1,CYCLE 4 DAY 1,4,2023-07-24,168,SD,3,Y
ONCVIZ-001,ONCVIZ-001-02-0236,TREATMENT,OVRLRESP,Overall Response per RECIST 1.1,CYCLE 1 DAY 1,1,2022-08-19,42,PD,4,Y
ONCVIZ-001,ONCVIZ-001-13-0237,TREATMENT,OVRLRESP,Overall Response per RECIST 1.1,CYCLE 1 DAY 1,1,2022-10-01,42,PR,2,Y
ONCVIZ-001,ONCVIZ-001-13-0237,TREATMENT,OVRLRESP,Overall Response per RECIST 1.1,CYCLE 2 DAY 1,2,2022-11-12,84,PR,2,Y
ONCVIZ-001,ONCVIZ-001-13-0237,TREATMENT,OVRLRESP,Overall Response per RECIST 1.1,CYCLE 3 DAY 1,3,2022-12-24,126,PR,2,Y
ONCVIZ-001,ONCVIZ-001-13-0237,TREATMENT,OVRLRESP,Overall Response per RECIST 1.1,CYCLE 4 DAY 1,4,2023-02-04,168,PR,2,Y
ONCVIZ-001,ONCVIZ-001-13-0237,TREATMENT,OVRLRESP,Overall Response per RECIST 1.1,CYCLE 5 DAY 1,5,2023-03-18,210,PR,2,Y
ONCVIZ-001,ONCVIZ-001-13-0237,TREATMENT,OVRLRESP,Overall Response per RECIST 1.1,CYCLE 6 DAY 1,6,2023-04-29,252,PR,2,Y
ONCVIZ-001,ONCVIZ-001-13-0237,TREATMENT,OVRLRESP,Overall Response per RECIST 1.1,CYCLE 7 DAY 1,7,2023-06-10,294,PR,2,Y
ONCVIZ-001,ONCVIZ-001-13-0237,TREATMENT,OVRLRESP,Overall Response per RECIST 1.1,CYCLE 8 DAY 1,8,2023-07-22,336,PR,2,Y
ONCVIZ-001,ONCVIZ-001-13-0237,TREATMENT,OVRLRESP,Overall Response per RECIST 1.1,CYCLE 9 DAY 1,9,2023-09-02,378,PR,2,Y
ONCVIZ-001,ONCVIZ-001-13-0237,TREATMENT,OVRLRESP,Overall Response per RECIST 1.1,CYCLE 10 DAY 1,10,2023-10-14,420,PR,2,Y
ONCVIZ-001,ONCVIZ-001-13-0237,TREATMENT,OVRLRESP,Overall Response per RECIST 1.1,CYCLE 11 DAY 1,11,2023-11-25,462,CR,1,Y
ONCVIZ-001,ONCVIZ-001-13-0237,TREATMENT,OVRLRESP,Overall Response per RECIST 1.1,CYCLE 12 DAY 1,12,2024-01-06,504,CR,1,Y
ONCVIZ-001,ONCVIZ-001-13-0237,TREATMENT,OVRLRESP,Overall Response per RECIST 1.1,CYCLE 13 DAY 1,13,2024-02-17,546,CR,1,Y
ONCVIZ-001,ONCVIZ-001-13-0237,TREATMENT,OVRLRESP,Overall Response per RECIST 1.1,CYCLE 14 DAY 1,14,2024-03-30,588,CR,1,Y
ONCVIZ-001,ONCVIZ-001-13-0237,TREATMENT,OVRLRESP,Overall Response per RECIST 1.1,CYCLE 15 DAY 1,15,2024-05-11,630,PR,2,Y
ONCVIZ-001,ONCVIZ-001-13-0237,TREATMENT,OVRLRESP,Overall Response per RECIST 1.1,CYCLE 16 DAY 1,16,2024-06-22,672,SD,3,Y
ONCVIZ-001,ONCVIZ-001-13-0237,TREATMENT,OVRLRESP,Overall Response per RECIST 1.1,CYCLE 17 DAY 1,17,2024-08-03,714,PD,4,Y
ONCVIZ-001,ONCVIZ-001-07-0238,CONTROL,OVRLRESP,Overall Response per RECIST 1.1,CYCLE 1 DAY 1,1,2023-03-03,42,PD,4,Y
ONCVIZ-001,ONCVIZ-001-15-0239,TREATMENT,OVRLRESP,Overall Response per RECIST 1.1,CYCLE 1 DAY 1,1,2022-08-14,42,PR,2,Y
ONCVIZ-001,ONCVIZ-001-13-0240,CONTROL,OVRLRESP,Overall Response per RECIST 1.1,CYCLE 1 DAY 1,1,2023-01-04,42,SD,3,Y
ONCVIZ-001,ONCVIZ-001-13-0240,CONTROL,OVRLRESP,Overall Response per RECIST 1.1,CYCLE 2 DAY 1,2,2023-02-15,84,CR,1,Y
ONCVIZ-001,ONCVIZ-001-13-0240,CONTROL,OVRLRESP,Overall Response per RECIST 1.1,CYCLE 3 DAY 1,3,2023-03-29,126,CR,1,Y
ONCVIZ-001,ONCVIZ-001-13-0240,CONTROL,OVRLRESP,Overall Response per RECIST 1.1,CYCLE 4 DAY 1,4,2023-05-10,168,CR,1,Y
ONCVIZ-001,ONCVIZ-001-13-0240,CONTROL,OVRLRESP,Overall Response per RECIST 1.1,CYCLE 5 DAY 1,5,2023-06-21,210,CR,1,Y
ONCVIZ-001,ONCVIZ-001-13-0240,CONTROL,OVRLRESP,Overall Response per RECIST 1.1,CYCLE 6 DAY 1,6,2023-08-02,252,CR,1,Y
ONCVIZ-001,ONCVIZ-001-13-0240,CONTROL,OVRLRESP,Overall Response per RECIST 1.1,CYCLE 7 DAY 1,7,2023-09-13,294,CR,1,Y
ONCVIZ-001,ONCVIZ-001-13-0240,CONTROL,OVRLRESP,Overall Response per RECIST 1.1,CYCLE 8 DAY 1,8,2023-10-25,336,PR,2,Y
ONCVIZ-001,ONCVIZ-001-03-0241,TREATMENT,OVRLRESP,Overall Response per RECIST 1.1,CYCLE 1 DAY 1,1,2022-10-14,42,SD,3,Y
ONCVIZ-001,ONCVIZ-001-03-0241,TREATMENT,OVRLRESP,Overall Response per RECIST 1.1,CYCLE 2 DAY 1,2,2022-11-25,84,SD,3,Y
ONCVIZ-001,ONCVIZ-001-03-0241,TREATMENT,OVRLRESP,Overall Response per RECIST 1.1,CYCLE 3 DAY 1,3,2023-01-06,126,PR,2,Y
ONCVIZ-001,ONCVIZ-001-03-0241,TREATMENT,OVRLRESP,Overall Response per RECIST 1.1,CYCLE 4 DAY 1,4,2023-02-17,168,PD,4,Y
ONCVIZ-001,ONCVIZ-001-06-0242,TREATMENT,OVRLRESP,Overall Response per RECIST 1.1,CYCLE 1 DAY 1,1,2023-12-11,42,PD,4,Y
ONCVIZ-001,ONCVIZ-001-03-0243,TREATMENT,OVRLRESP,Overall Response per RECIST 1.1,CYCLE 1 DAY 1,1,2023-08-17,42,PD,4,Y
ONCVIZ-001,ONCVIZ-001-07-0244,CONTROL,OVRLRESP,Overall Response per RECIST 1.1,CYCLE 1 DAY 1,1,2022-09-15,42,SD,3,Y
ONCVIZ-001,ONCVIZ-001-17-0245,TREATMENT,OVRLRESP,Overall Response per RECIST 1.1,CYCLE 1 DAY 1,1,2022-10-25,42,CR,1,Y
ONCVIZ-001,ONCVIZ-001-13-0246,CONTROL,OVRLRESP,Overall Response per RECIST 1.1,CYCLE 1 DAY 1,1,2022-10-02,42,SD,3,Y
ONCVIZ-001,ONCVIZ-001-13-0246,CONTROL,OVRLRESP,Overall Response per RECIST 1.1,CYCLE 2 DAY 1,2,2022-11-13,84,SD,3,Y
ONCVIZ-001,ONCVIZ-001-13-0246,CONTROL,OVRLRESP,Overall Response per RECIST 1.1,CYCLE 3 DAY 1,3,2022-12-25,126,PD,4,Y
ONCVIZ-001,ONCVIZ-001-08-0247,CONTROL,OVRLRESP,Overall Response per RECIST 1.1,CYCLE 1 DAY 1,1,2023-08-07,42,SD,3,Y
ONCVIZ-001,ONCVIZ-001-08-0247,CONTROL,OVRLRESP,Overall Response per RECIST 1.1,CYCLE 2 DAY 1,2,2023-09-18,84,SD,3,Y
ONCVIZ-001,ONCVIZ-001-08-0247,CONTROL,OVRLRESP,Overall Response per RECIST 1.1,CYCLE 3 DAY 1,3,2023-10-30,126,SD,3,Y
ONCVIZ-001,ONCVIZ-001-02-0248,TREATMENT,OVRLRESP,Overall Response per RECIST 1.1,CYCLE 1 DAY 1,1,2023-10-07,42,SD,3,Y
ONCVIZ-001,ONCVIZ-001-02-0248,TREATMENT,OVRLRESP,Overall Response per RECIST 1.1,CYCLE 2 DAY 1,2,2023-11-18,84,SD,3,Y
ONCVIZ-001,ONCVIZ-001-02-0248,TREATMENT,OVRLRESP,Overall Response per RECIST 1.1,CYCLE 3 DAY 1,3,2023-12-30,126,PD,4,Y
ONCVIZ-001,ONCVIZ-001-14-0249,CONTROL,OVRLRESP,Overall Response per RECIST 1.1,CYCLE 1 DAY 1,1,2023-11-26,42,PD,4,Y
ONCVIZ-001,ONCVIZ-001-06-0250,TREATMENT,OVRLRESP,Overall Response per RECIST 1.1,CYCLE 1 DAY 1,1,2022-12-25,42,SD,3,Y
ONCVIZ-001,ONCVIZ-001-06-0250,TREATMENT,OVRLRESP,Overall Response per RECIST 1.1,CYCLE 2 DAY 1,2,2023-02-05,84,SD,3,Y
ONCVIZ-001,ONCVIZ-001-06-0250,TREATMENT,OVRLRESP,Overall Response per RECIST 1.1,CYCLE 3 DAY 1,3,2023-03-19,126,SD,3,Y
ONCVIZ-001,ONCVIZ-001-06-0250,TREATMENT,OVRLRESP,Overall Response per RECIST 1.1,CYCLE 4 DAY 1,4,2023-04-30,168,PD,4,Y
ONCVIZ-001,ONCVIZ-001-03-0251,TREATMENT,OVRLRESP,Overall Response per RECIST 1.1,CYCLE 1 DAY 1,1,2023-11-28,42,PR,2,Y
ONCVIZ-001,ONCVIZ-001-03-0251,TREATMENT,OVRLRESP,Overall Response per RECIST 1.1,CYCLE 2 DAY 1,2,2024-01-09,84,PD,4,Y
ONCVIZ-001,ONCVIZ-001-06-0252,TREATMENT,OVRLRESP,Overall Response per RECIST 1.1,CYCLE 1 DAY 1,1,2023-11-21,42,PR,2,Y
ONCVIZ-001,ONCVIZ-001-06-0252,TREATMENT,OVRLRESP,Overall Response per RECIST 1.1,CYCLE 2 DAY 1,2,2024-01-02,84,SD,3,Y
ONCVIZ-001,ONCVIZ-001-06-0252,TREATMENT,OVRLRESP,Overall Response per RECIST 1.1,CYCLE 3 DAY 1,3,2024-02-13,126,SD,3,Y
ONCVIZ-001,ONCVIZ-001-06-0252,TREATMENT,OVRLRESP,Overall Response per RECIST 1.1,CYCLE 4 DAY 1,4,2024-03-26,168,PR,2,Y
ONCVIZ-001,ONCVIZ-001-06-0252,TREATMENT,OVRLRESP,Overall Response per RECIST 1.1,CYCLE 5 DAY 1,5,2024-05-07,210,PR,2,Y
ONCVIZ-001,ONCVIZ-001-06-0252,TREATMENT,OVRLRESP,Overall Response per RECIST 1.1,CYCLE 6 DAY 1,6,2024-06-18,252,PR,2,Y
ONCVIZ-001,ONCVIZ-001-06-0252,TREATMENT,OVRLRESP,Overall Response per RECIST 1.1,CYCLE 7 DAY 1,7,2024-07-30,294,CR,1,Y
ONCVIZ-001,ONCVIZ-001-06-0252,TREATMENT,OVRLRESP,Overall Response per RECIST 1.1,CYCLE 8 DAY 1,8,2024-09-10,336,CR,1,Y
ONCVIZ-001,ONCVIZ-001-06-0252,TREATMENT,OVRLRESP,Overall Response per RECIST 1.1,CYCLE 9 DAY 1,9,2024-10-22,378,CR,1,Y
ONCVIZ-001,ONCVIZ-001-06-0252,TREATMENT,OVRLRESP,Overall Response per RECIST 1.1,CYCLE 10 DAY 1,10,2024-12-03,420,CR,1,Y
ONCVIZ-001,ONCVIZ-001-06-0252,TREATMENT,OVRLRESP,Overall Response per RECIST 1.1,CYCLE 11 DAY 1,11,2025-01-14,462,CR,1,Y
ONCVIZ-001,ONCVIZ-001-06-0252,TREATMENT,OVRLRESP,Overall Response per RECIST 1.1,CYCLE 12 DAY 1,12,2025-02-25,504,CR,1,Y
ONCVIZ-001,ONCVIZ-001-06-0252,TREATMENT,OVRLRESP,Overall Response per RECIST 1.1,CYCLE 13 DAY 1,13,2025-04-08,546,CR,1,Y
ONCVIZ-001,ONCVIZ-001-06-0252,TREATMENT,OVRLRESP,Overall Response per RECIST 1.1,CYCLE 14 DAY 1,14,2025-05-20,588,CR,1,Y
ONCVIZ-001,ONCVIZ-001-06-0252,TREATMENT,OVRLRESP,Overall Response per RECIST 1.1,CYCLE 15 DAY 1,15,2025-07-01,630,CR,1,Y
ONCVIZ-001,ONCVIZ-001-06-0252,TREATMENT,OVRLRESP,Overall Response per RECIST 1.1,CYCLE 16 DAY 1,16,2025-08-12,672,CR,1,Y
ONCVIZ-001,ONCVIZ-001-06-0252,TREATMENT,OVRLRESP,Overall Response per RECIST 1.1,CYCLE 17 DAY 1,17,2025-09-23,714,CR,1,Y
ONCVIZ-001,ONCVIZ-001-06-0252,TREATMENT,OVRLRESP,Overall Response per RECIST 1.1,CYCLE 18 DAY 1,18,2025-11-04,756,CR,1,Y
ONCVIZ-001,ONCVIZ-001-06-0252,TREATMENT,OVRLRESP,Overall Response per RECIST 1.1,CYCLE 19 DAY 1,19,2025-12-16,798,CR,1,Y
ONCVIZ-001,ONCVIZ-001-06-0252,TREATMENT,OVRLRESP,Overall Response per RECIST 1.1,CYCLE 20 DAY 1,20,2026-01-27,840,CR,1,Y
ONCVIZ-001,ONCVIZ-001-02-0253,TREATMENT,OVRLRESP,Overall Response per RECIST 1.1,CYCLE 1 DAY 1,1,2022-12-02,42,SD,3,Y
ONCVIZ-001,ONCVIZ-001-02-0253,TREATMENT,OVRLRESP,Overall Response per RECIST 1.1,CYCLE 2 DAY 1,2,2023-01-13,84,SD,3,Y
ONCVIZ-001,ONCVIZ-001-02-0253,TREATMENT,OVRLRESP,Overall Response per RECIST 1.1,CYCLE 3 DAY 1,3,2023-02-24,126,PR,2,Y
ONCVIZ-001,ONCVIZ-001-02-0253,TREATMENT,OVRLRESP,Overall Response per RECIST 1.1,CYCLE 4 DAY 1,4,2023-04-07,168,PD,4,Y
ONCVIZ-001,ONCVIZ-001-20-0254,CONTROL,OVRLRESP,Overall Response per RECIST 1.1,CYCLE 1 DAY 1,1,2023-08-11,42,PD,4,Y
ONCVIZ-001,ONCVIZ-001-16-0255,CONTROL,OVRLRESP,Overall Response per RECIST 1.1,CYCLE 1 DAY 1,1,2022-11-16,42,SD,3,Y
ONCVIZ-001,ONCVIZ-001-16-0255,CONTROL,OVRLRESP,Overall Response per RECIST 1.1,CYCLE 2 DAY 1,2,2022-12-28,84,PD,4,Y
ONCVIZ-001,ONCVIZ-001-20-0256,TREATMENT,OVRLRESP,Overall Response per RECIST 1.1,CYCLE 1 DAY 1,1,2023-01-23,42,PR,2,Y
ONCVIZ-001,ONCVIZ-001-20-0256,TREATMENT,OVRLRESP,Overall Response per RECIST 1.1,CYCLE 2 DAY 1,2,2023-03-06,84,SD,3,Y
ONCVIZ-001,ONCVIZ-001-20-0256,TREATMENT,OVRLRESP,Overall Response per RECIST 1.1,CYCLE 3 DAY 1,3,2023-04-17,126,SD,3,Y
ONCVIZ-001,ONCVIZ-001-20-0256,TREATMENT,OVRLRESP,Overall Response per RECIST 1.1,CYCLE 4 DAY 1,4,2023-05-29,168,SD,3,Y
ONCVIZ-001,ONCVIZ-001-20-0256,TREATMENT,OVRLRESP,Overall Response per RECIST 1.1,CYCLE 5 DAY 1,5,2023-07-10,210,PD,4,Y
ONCVIZ-001,ONCVIZ-001-19-0257,TREATMENT,OVRLRESP,Overall Response per RECIST 1.1,CYCLE 1 DAY 1,1,2023-08-02,42,PR,2,Y
ONCVIZ-001,ONCVIZ-001-19-0257,TREATMENT,OVRLRESP,Overall Response per RECIST 1.1,CYCLE 2 DAY 1,2,2023-09-13,84,PR,2,Y
ONCVIZ-001,ONCVIZ-001-19-0257,TREATMENT,OVRLRESP,Overall Response per RECIST 1.1,CYCLE 3 DAY 1,3,2023-10-25,126,PR,2,Y
ONCVIZ-001,ONCVIZ-001-19-0257,TREATMENT,OVRLRESP,Overall Response per RECIST 1.1,CYCLE 4 DAY 1,4,2023-12-06,168,CR,1,Y
ONCVIZ-001,ONCVIZ-001-19-0257,TREATMENT,OVRLRESP,Overall Response per RECIST 1.1,CYCLE 5 DAY 1,5,2024-01-17,210,CR,1,Y
ONCVIZ-001,ONCVIZ-001-19-0257,TREATMENT,OVRLRESP,Overall Response per RECIST 1.1,CYCLE 6 DAY 1,6,2024-02-28,252,SD,3,Y
ONCVIZ-001,ONCVIZ-001-19-0257,TREATMENT,OVRLRESP,Overall Response per RECIST 1.1,CYCLE 7 DAY 1,7,2024-04-10,294,SD,3,Y
ONCVIZ-001,ONCVIZ-001-19-0257,TREATMENT,OVRLRESP,Overall Response per RECIST 1.1,CYCLE 8 DAY 1,8,2024-05-22,336,SD,3,Y
ONCVIZ-001,ONCVIZ-001-19-0257,TREATMENT,OVRLRESP,Overall Response per RECIST 1.1,CYCLE 9 DAY 1,9,2024-07-03,378,SD,3,Y
ONCVIZ-001,ONCVIZ-001-19-0257,TREATMENT,OVRLRESP,Overall Response per RECIST 1.1,CYCLE 10 DAY 1,10,2024-08-14,420,PD,4,Y
ONCVIZ-001,ONCVIZ-001-02-0258,CONTROL,OVRLRESP,Overall Response per RECIST 1.1,CYCLE 1 DAY 1,1,2022-09-06,42,PR,2,Y
ONCVIZ-001,ONCVIZ-001-02-0258,CONTROL,OVRLRESP,Overall Response per RECIST 1.1,CYCLE 2 DAY 1,2,2022-10-18,84,PR,2,Y
ONCVIZ-001,ONCVIZ-001-02-0258,CONTROL,OVRLRESP,Overall Response per RECIST 1.1,CYCLE 3 DAY 1,3,2022-11-29,126,PR,2,Y
ONCVIZ-001,ONCVIZ-001-02-0258,CONTROL,OVRLRESP,Overall Response per RECIST 1.1,CYCLE 4 DAY 1,4,2023-01-10,168,PD,4,Y
ONCVIZ-001,ONCVIZ-001-10-0259,CONTROL,OVRLRESP,Overall Response per RECIST 1.1,CYCLE 1 DAY 1,1,2023-03-20,42,CR,1,Y
ONCVIZ-001,ONCVIZ-001-10-0259,CONTROL,OVRLRESP,Overall Response per RECIST 1.1,CYCLE 2 DAY 1,2,2023-05-01,84,CR,1,Y
ONCVIZ-001,ONCVIZ-001-10-0259,CONTROL,OVRLRESP,Overall Response per RECIST 1.1,CYCLE 3 DAY 1,3,2023-06-12,126,PR,2,Y
ONCVIZ-001,ONCVIZ-001-10-0259,CONTROL,OVRLRESP,Overall Response per RECIST 1.1,CYCLE 4 DAY 1,4,2023-07-24,168,PR,2,Y
ONCVIZ-001,ONCVIZ-001-10-0259,CONTROL,OVRLRESP,Overall Response per RECIST 1.1,CYCLE 5 DAY 1,5,2023-09-04,210,PR,2,Y
ONCVIZ-001,ONCVIZ-001-10-0259,CONTROL,OVRLRESP,Overall Response per RECIST 1.1,CYCLE 6 DAY 1,6,2023-10-16,252,CR,1,Y
ONCVIZ-001,ONCVIZ-001-10-0259,CONTROL,OVRLRESP,Overall Response per RECIST 1.1,CYCLE 7 DAY 1,7,2023-11-27,294,CR,1,Y
ONCVIZ-001,ONCVIZ-001-10-0259,CONTROL,OVRLRESP,Overall Response per RECIST 1.1,CYCLE 8 DAY 1,8,2024-01-08,336,PD,4,Y
ONCVIZ-001,ONCVIZ-001-13-0260,CONTROL,OVRLRESP,Overall Response per RECIST 1.1,CYCLE 1 DAY 1,1,2023-05-14,42,PD,4,Y
ONCVIZ-001,ONCVIZ-001-01-0261,TREATMENT,OVRLRESP,Overall Response per RECIST 1.1,CYCLE 1 DAY 1,1,2022-08-17,42,SD,3,Y
ONCVIZ-001,ONCVIZ-001-01-0261,TREATMENT,OVRLRESP,Overall Response per RECIST 1.1,CYCLE 2 DAY 1,2,2022-09-28,84,PR,2,Y
ONCVIZ-001,ONCVIZ-001-01-0261,TREATMENT,OVRLRESP,Overall Response per RECIST 1.1,CYCLE 3 DAY 1,3,2022-11-09,126,PR,2,Y
ONCVIZ-001,ONCVIZ-001-01-0261,TREATMENT,OVRLRESP,Overall Response per RECIST 1.1,CYCLE 4 DAY 1,4,2022-12-21,168,PD,4,Y
ONCVIZ-001,ONCVIZ-001-01-0262,TREATMENT,OVRLRESP,Overall Response per RECIST 1.1,CYCLE 1 DAY 1,1,2023-09-18,42,SD,3,Y
ONCVIZ-001,ONCVIZ-001-01-0262,TREATMENT,OVRLRESP,Overall Response per RECIST 1.1,CYCLE 2 DAY 1,2,2023-10-30,84,PD,4,Y
ONCVIZ-001,ONCVIZ-001-09-0263,CONTROL,OVRLRESP,Overall Response per RECIST 1.1,CYCLE 1 DAY 1,1,2022-10-12,42,PD,4,Y
ONCVIZ-001,ONCVIZ-001-13-0264,CONTROL,OVRLRESP,Overall Response per RECIST 1.1,CYCLE 1 DAY 1,1,2023-08-29,42,PD,4,Y
ONCVIZ-001,ONCVIZ-001-19-0265,CONTROL,OVRLRESP,Overall Response per RECIST 1.1,CYCLE 1 DAY 1,1,2022-10-02,42,SD,3,Y
ONCVIZ-001,ONCVIZ-001-19-0265,CONTROL,OVRLRESP,Overall Response per RECIST 1.1,CYCLE 2 DAY 1,2,2022-11-13,84,SD,3,Y
ONCVIZ-001,ONCVIZ-001-19-0265,CONTROL,OVRLRESP,Overall Response per RECIST 1.1,CYCLE 3 DAY 1,3,2022-12-25,126,PD,4,Y
ONCVIZ-001,ONCVIZ-001-18-0266,CONTROL,OVRLRESP,Overall Response per RECIST 1.1,CYCLE 1 DAY 1,1,2022-08-25,42,PD,4,Y
ONCVIZ-001,ONCVIZ-001-12-0267,CONTROL,OVRLRESP,Overall Response per RECIST 1.1,CYCLE 1 DAY 1,1,2023-10-30,42,SD,3,Y
ONCVIZ-001,ONCVIZ-001-12-0267,CONTROL,OVRLRESP,Overall Response per RECIST 1.1,CYCLE 2 DAY 1,2,2023-12-11,84,PD,4,Y
ONCVIZ-001,ONCVIZ-001-04-0268,TREATMENT,OVRLRESP,Overall Response per RECIST 1.1,CYCLE 1 DAY 1,1,2023-09-30,42,SD,3,Y
ONCVIZ-001,ONCVIZ-001-04-0268,TREATMENT,OVRLRESP,Overall Response per RECIST 1.1,CYCLE 2 DAY 1,2,2023-11-11,84,PD,4,Y
ONCVIZ-001,ONCVIZ-001-13-0269,TREATMENT,OVRLRESP,Overall Response per RECIST 1.1,CYCLE 1 DAY 1,1,2023-03-12,42,PD,4,Y
ONCVIZ-001,ONCVIZ-001-10-0270,TREATMENT,OVRLRESP,Overall Response per RECIST 1.1,CYCLE 1 DAY 1,1,2023-01-25,42,SD,3,Y
ONCVIZ-001,ONCVIZ-001-10-0270,TREATMENT,OVRLRESP,Overall Response per RECIST 1.1,CYCLE 2 DAY 1,2,2023-03-08,84,PD,4,Y
ONCVIZ-001,ONCVIZ-001-10-0271,CONTROL,OVRLRESP,Overall Response per RECIST 1.1,CYCLE 1 DAY 1,1,2022-11-04,42,PD,4,Y
ONCVIZ-001,ONCVIZ-001-12-0272,CONTROL,OVRLRESP,Overall Response per RECIST 1.1,CYCLE 1 DAY 1,1,2022-11-20,42,PD,4,Y
ONCVIZ-001,ONCVIZ-001-12-0273,TREATMENT,OVRLRESP,Overall Response per RECIST 1.1,CYCLE 1 DAY 1,1,2023-08-27,42,PR,2,Y
ONCVIZ-001,ONCVIZ-001-12-0273,TREATMENT,OVRLRESP,Overall Response per RECIST 1.1,CYCLE 2 DAY 1,2,2023-10-08,84,SD,3,Y
ONCVIZ-001,ONCVIZ-001-12-0273,TREATMENT,OVRLRESP,Overall Response per RECIST 1.1,CYCLE 3 DAY 1,3,2023-11-19,126,SD,3,Y
ONCVIZ-001,ONCVIZ-001-12-0273,TREATMENT,OVRLRESP,Overall Response per RECIST 1.1,CYCLE 4 DAY 1,4,2023-12-31,168,SD,3,Y
ONCVIZ-001,ONCVIZ-001-12-0273,TREATMENT,OVRLRESP,Overall Response per RECIST 1.1,CYCLE 5 DAY 1,5,2024-02-11,210,PD,4,Y
ONCVIZ-001,ONCVIZ-001-17-0274,TREATMENT,OVRLRESP,Overall Response per RECIST 1.1,CYCLE 1 DAY 1,1,2022-10-06,42,PR,2,Y
ONCVIZ-001,ONCVIZ-001-17-0274,TREATMENT,OVRLRESP,Overall Response per RECIST 1.1,CYCLE 2 DAY 1,2,2022-11-17,84,PD,4,Y
ONCVIZ-001,ONCVIZ-001-02-0275,TREATMENT,OVRLRESP,Overall Response per RECIST 1.1,CYCLE 1 DAY 1,1,2023-08-21,42,PD,4,Y
ONCVIZ-001,ONCVIZ-001-06-0276,TREATMENT,OVRLRESP,Overall Response per RECIST 1.1,CYCLE 1 DAY 1,1,2022-07-26,42,CR,1,Y
ONCVIZ-001,ONCVIZ-001-06-0276,TREATMENT,OVRLRESP,Overall Response per RECIST 1.1,CYCLE 2 DAY 1,2,2022-09-06,84,CR,1,Y
ONCVIZ-001,ONCVIZ-001-06-0276,TREATMENT,OVRLRESP,Overall Response per RECIST 1.1,CYCLE 3 DAY 1,3,2022-10-18,126,CR,1,Y
ONCVIZ-001,ONCVIZ-001-06-0276,TREATMENT,OVRLRESP,Overall Response per RECIST 1.1,CYCLE 4 DAY 1,4,2022-11-29,168,CR,1,Y
ONCVIZ-001,ONCVIZ-001-06-0276,TREATMENT,OVRLRESP,Overall Response per RECIST 1.1,CYCLE 5 DAY 1,5,2023-01-10,210,PR,2,Y
ONCVIZ-001,ONCVIZ-001-06-0276,TREATMENT,OVRLRESP,Overall Response per RECIST 1.1,CYCLE 6 DAY 1,6,2023-02-21,252,PR,2,Y
ONCVIZ-001,ONCVIZ-001-06-0276,TREATMENT,OVRLRESP,Overall Response per RECIST 1.1,CYCLE 7 DAY 1,7,2023-04-04,294,SD,3,Y
ONCVIZ-001,ONCVIZ-001-06-0276,TREATMENT,OVRLRESP,Overall Response per RECIST 1.1,CYCLE 8 DAY 1,8,2023-05-16,336,SD,3,Y
ONCVIZ-001,ONCVIZ-001-06-0276,TREATMENT,OVRLRESP,Overall Response per RECIST 1.1,CYCLE 9 DAY 1,9,2023-06-27,378,PD,4,Y
ONCVIZ-001,ONCVIZ-001-20-0277,TREATMENT,OVRLRESP,Overall Response per RECIST 1.1,CYCLE 1 DAY 1,1,2023-02-27,42,SD,3,Y
ONCVIZ-001,ONCVIZ-001-20-0277,TREATMENT,OVRLRESP,Overall Response per RECIST 1.1,CYCLE 2 DAY 1,2,2023-04-10,84,SD,3,Y
ONCVIZ-001,ONCVIZ-001-20-0277,TREATMENT,OVRLRESP,Overall Response per RECIST 1.1,CYCLE 3 DAY 1,3,2023-05-22,126,PR,2,Y
ONCVIZ-001,ONCVIZ-001-20-0277,TREATMENT,OVRLRESP,Overall Response per RECIST 1.1,CYCLE 4 DAY 1,4,2023-07-03,168,PR,2,Y
ONCVIZ-001,ONCVIZ-001-20-0277,TREATMENT,OVRLRESP,Overall Response per RECIST 1.1,CYCLE 5 DAY 1,5,2023-08-14,210,PR,2,Y
ONCVIZ-001,ONCVIZ-001-20-0277,TREATMENT,OVRLRESP,Overall Response per RECIST 1.1,CYCLE 6 DAY 1,6,2023-09-25,252,SD,3,Y
ONCVIZ-001,ONCVIZ-001-20-0277,TREATMENT,OVRLRESP,Overall Response per RECIST 1.1,CYCLE 7 DAY 1,7,2023-11-06,294,SD,3,Y
ONCVIZ-001,ONCVIZ-001-20-0277,TREATMENT,OVRLRESP,Overall Response per RECIST 1.1,CYCLE 8 DAY 1,8,2023-12-18,336,SD,3,Y
ONCVIZ-001,ONCVIZ-001-20-0277,TREATMENT,OVRLRESP,Overall Response per RECIST 1.1,CYCLE 9 DAY 1,9,2024-01-29,378,PR,2,Y
ONCVIZ-001,ONCVIZ-001-20-0277,TREATMENT,OVRLRESP,Overall Response per RECIST 1.1,CYCLE 10 DAY 1,10,2024-03-11,420,PR,2,Y
ONCVIZ-001,ONCVIZ-001-20-0277,TREATMENT,OVRLRESP,Overall Response per RECIST 1.1,CYCLE 11 DAY 1,11,2024-04-22,462,PR,2,Y
ONCVIZ-001,ONCVIZ-001-20-0277,TREATMENT,OVRLRESP,Overall Response per RECIST 1.1,CYCLE 12 DAY 1,12,2024-06-03,504,PD,4,Y
ONCVIZ-001,ONCVIZ-001-13-0278,CONTROL,OVRLRESP,Overall Response per RECIST 1.1,CYCLE 1 DAY 1,1,2023-04-16,42,PR,2,Y
ONCVIZ-001,ONCVIZ-001-05-0279,CONTROL,OVRLRESP,Overall Response per RECIST 1.1,CYCLE 1 DAY 1,1,2023-12-04,42,SD,3,Y
ONCVIZ-001,ONCVIZ-001-05-0279,CONTROL,OVRLRESP,Overall Response per RECIST 1.1,CYCLE 2 DAY 1,2,2024-01-15,84,PD,4,Y
ONCVIZ-001,ONCVIZ-001-17-0280,TREATMENT,OVRLRESP,Overall Response per RECIST 1.1,CYCLE 1 DAY 1,1,2022-12-01,42,PR,2,Y
ONCVIZ-001,ONCVIZ-001-17-0280,TREATMENT,OVRLRESP,Overall Response per RECIST 1.1,CYCLE 2 DAY 1,2,2023-01-12,84,SD,3,Y
ONCVIZ-001,ONCVIZ-001-17-0280,TREATMENT,OVRLRESP,Overall Response per RECIST 1.1,CYCLE 3 DAY 1,3,2023-02-23,126,SD,3,Y
ONCVIZ-001,ONCVIZ-001-17-0280,TREATMENT,OVRLRESP,Overall Response per RECIST 1.1,CYCLE 4 DAY 1,4,2023-04-06,168,SD,3,Y
ONCVIZ-001,ONCVIZ-001-17-0280,TREATMENT,OVRLRESP,Overall Response per RECIST 1.1,CYCLE 5 DAY 1,5,2023-05-18,210,PR,2,Y
ONCVIZ-001,ONCVIZ-001-17-0280,TREATMENT,OVRLRESP,Overall Response per RECIST 1.1,CYCLE 6 DAY 1,6,2023-06-29,252,PD,4,Y
ONCVIZ-001,ONCVIZ-001-04-0281,TREATMENT,OVRLRESP,Overall Response per RECIST 1.1,CYCLE 1 DAY 1,1,2023-01-06,42,PR,2,Y
ONCVIZ-001,ONCVIZ-001-04-0281,TREATMENT,OVRLRESP,Overall Response per RECIST 1.1,CYCLE 2 DAY 1,2,2023-02-17,84,PR,2,Y
ONCVIZ-001,ONCVIZ-001-09-0282,CONTROL,OVRLRESP,Overall Response per RECIST 1.1,CYCLE 1 DAY 1,1,2023-09-20,42,PD,4,Y
ONCVIZ-001,ONCVIZ-001-10-0283,TREATMENT,OVRLRESP,Overall Response per RECIST 1.1,CYCLE 1 DAY 1,1,2023-07-12,42,SD,3,Y
ONCVIZ-001,ONCVIZ-001-10-0283,TREATMENT,OVRLRESP,Overall Response per RECIST 1.1,CYCLE 2 DAY 1,2,2023-08-23,84,PD,4,Y
ONCVIZ-001,ONCVIZ-001-05-0284,TREATMENT,OVRLRESP,Overall Response per RECIST 1.1,CYCLE 1 DAY 1,1,2023-09-27,42,SD,3,Y
ONCVIZ-001,ONCVIZ-001-05-0284,TREATMENT,OVRLRESP,Overall Response per RECIST 1.1,CYCLE 2 DAY 1,2,2023-11-08,84,SD,3,Y
ONCVIZ-001,ONCVIZ-001-05-0284,TREATMENT,OVRLRESP,Overall Response per RECIST 1.1,CYCLE 3 DAY 1,3,2023-12-20,126,PD,4,Y
ONCVIZ-001,ONCVIZ-001-05-0285,TREATMENT,OVRLRESP,Overall Response per RECIST 1.1,CYCLE 1 DAY 1,1,2022-12-03,42,PR,2,Y
ONCVIZ-001,ONCVIZ-001-05-0285,TREATMENT,OVRLRESP,Overall Response per RECIST 1.1,CYCLE 2 DAY 1,2,2023-01-14,84,PR,2,Y
ONCVIZ-001,ONCVIZ-001-05-0285,TREATMENT,OVRLRESP,Overall Response per RECIST 1.1,CYCLE 3 DAY 1,3,2023-02-25,126,PR,2,Y
ONCVIZ-001,ONCVIZ-001-05-0285,TREATMENT,OVRLRESP,Overall Response per RECIST 1.1,CYCLE 4 DAY 1,4,2023-04-08,168,PR,2,Y
ONCVIZ-001,ONCVIZ-001-05-0285,TREATMENT,OVRLRESP,Overall Response per RECIST 1.1,CYCLE 5 DAY 1,5,2023-05-20,210,PR,2,Y
ONCVIZ-001,ONCVIZ-001-05-0285,TREATMENT,OVRLRESP,Overall Response per RECIST 1.1,CYCLE 6 DAY 1,6,2023-07-01,252,PR,2,Y
ONCVIZ-001,ONCVIZ-001-05-0285,TREATMENT,OVRLRESP,Overall Response per RECIST 1.1,CYCLE 7 DAY 1,7,2023-08-12,294,CR,1,Y
ONCVIZ-001,ONCVIZ-001-05-0285,TREATMENT,OVRLRESP,Overall Response per RECIST 1.1,CYCLE 8 DAY 1,8,2023-09-23,336,CR,1,Y
ONCVIZ-001,ONCVIZ-001-05-0285,TREATMENT,OVRLRESP,Overall Response per RECIST 1.1,CYCLE 9 DAY 1,9,2023-11-04,378,CR,1,Y
ONCVIZ-001,ONCVIZ-001-05-0285,TREATMENT,OVRLRESP,Overall Response per RECIST 1.1,CYCLE 10 DAY 1,10,2023-12-16,420,CR,1,Y
ONCVIZ-001,ONCVIZ-001-05-0285,TREATMENT,OVRLRESP,Overall Response per RECIST 1.1,CYCLE 11 DAY 1,11,2024-01-27,462,CR,1,Y
ONCVIZ-001,ONCVIZ-001-05-0285,TREATMENT,OVRLRESP,Overall Response per RECIST 1.1,CYCLE 12 DAY 1,12,2024-03-09,504,CR,1,Y
ONCVIZ-001,ONCVIZ-001-20-0286,CONTROL,OVRLRESP,Overall Response per RECIST 1.1,CYCLE 1 DAY 1,1,2022-10-16,42,PR,2,Y
ONCVIZ-001,ONCVIZ-001-20-0286,CONTROL,OVRLRESP,Overall Response per RECIST 1.1,CYCLE 2 DAY 1,2,2022-11-27,84,PD,4,Y
ONCVIZ-001,ONCVIZ-001-04-0287,CONTROL,OVRLRESP,Overall Response per RECIST 1.1,CYCLE 1 DAY 1,1,2022-08-05,42,PD,4,Y
ONCVIZ-001,ONCVIZ-001-13-0288,TREATMENT,OVRLRESP,Overall Response per RECIST 1.1,CYCLE 1 DAY 1,1,2023-02-01,42,SD,3,Y
ONCVIZ-001,ONCVIZ-001-13-0288,TREATMENT,OVRLRESP,Overall Response per RECIST 1.1,CYCLE 2 DAY 1,2,2023-03-15,84,PD,4,Y
ONCVIZ-001,ONCVIZ-001-15-0289,CONTROL,OVRLRESP,Overall Response per RECIST 1.1,CYCLE 1 DAY 1,1,2022-07-27,42,CR,1,Y
ONCVIZ-001,ONCVIZ-001-15-0289,CONTROL,OVRLRESP,Overall Response per RECIST 1.1,CYCLE 2 DAY 1,2,2022-09-07,84,CR,1,Y
ONCVIZ-001,ONCVIZ-001-15-0289,CONTROL,OVRLRESP,Overall Response per RECIST 1.1,CYCLE 3 DAY 1,3,2022-10-19,126,CR,1,Y
ONCVIZ-001,ONCVIZ-001-15-0289,CONTROL,OVRLRESP,Overall Response per RECIST 1.1,CYCLE 4 DAY 1,4,2022-11-30,168,PD,4,Y
ONCVIZ-001,ONCVIZ-001-15-0290,TREATMENT,OVRLRESP,Overall Response per RECIST 1.1,CYCLE 1 DAY 1,1,2023-09-07,42,PR,2,Y
ONCVIZ-001,ONCVIZ-001-15-0290,TREATMENT,OVRLRESP,Overall Response per RECIST 1.1,CYCLE 2 DAY 1,2,2023-10-19,84,SD,3,Y
ONCVIZ-001,ONCVIZ-001-15-0290,TREATMENT,OVRLRESP,Overall Response per RECIST 1.1,CYCLE 3 DAY 1,3,2023-11-30,126,PD,4,Y
ONCVIZ-001,ONCVIZ-001-02-0291,CONTROL,OVRLRESP,Overall Response per RECIST 1.1,CYCLE 1 DAY 1,1,2023-03-17,42,SD,3,Y
ONCVIZ-001,ONCVIZ-001-02-0291,CONTROL,OVRLRESP,Overall Response per RECIST 1.1,CYCLE 2 DAY 1,2,2023-04-28,84,SD,3,Y
ONCVIZ-001,ONCVIZ-001-02-0291,CONTROL,OVRLRESP,Overall Response per RECIST 1.1,CYCLE 3 DAY 1,3,2023-06-09,126,PR,2,Y
ONCVIZ-001,ONCVIZ-001-02-0291,CONTROL,OVRLRESP,Overall Response per RECIST 1.1,CYCLE 4 DAY 1,4,2023-07-21,168,PD,4,Y
ONCVIZ-001,ONCVIZ-001-17-0292,CONTROL,OVRLRESP,Overall Response per RECIST 1.1,CYCLE 1 DAY 1,1,2023-04-05,42,SD,3,Y
ONCVIZ-001,ONCVIZ-001-17-0292,CONTROL,OVRLRESP,Overall Response per RECIST 1.1,CYCLE 2 DAY 1,2,2023-05-17,84,PR,2,Y
ONCVIZ-001,ONCVIZ-001-17-0292,CONTROL,OVRLRESP,Overall Response per RECIST 1.1,CYCLE 3 DAY 1,3,2023-06-28,126,PR,2,Y
ONCVIZ-001,ONCVIZ-001-17-0292,CONTROL,OVRLRESP,Overall Response per RECIST 1.1,CYCLE 4 DAY 1,4,2023-08-09,168,PD,4,Y
ONCVIZ-001,ONCVIZ-001-19-0293,TREATMENT,OVRLRESP,Overall Response per RECIST 1.1,CYCLE 1 DAY 1,1,2022-10-26,42,SD,3,Y
ONCVIZ-001,ONCVIZ-001-19-0293,TREATMENT,OVRLRESP,Overall Response per RECIST 1.1,CYCLE 2 DAY 1,2,2022-12-07,84,PD,4,Y
ONCVIZ-001,ONCVIZ-001-03-0294,TREATMENT,OVRLRESP,Overall Response per RECIST 1.1,CYCLE 1 DAY 1,1,2022-07-18,42,PR,2,Y
ONCVIZ-001,ONCVIZ-001-03-0294,TREATMENT,OVRLRESP,Overall Response per RECIST 1.1,CYCLE 2 DAY 1,2,2022-08-29,84,PR,2,Y
ONCVIZ-001,ONCVIZ-001-03-0294,TREATMENT,OVRLRESP,Overall Response per RECIST 1.1,CYCLE 3 DAY 1,3,2022-10-10,126,PR,2,Y
ONCVIZ-001,ONCVIZ-001-03-0294,TREATMENT,OVRLRESP,Overall Response per RECIST 1.1,CYCLE 4 DAY 1,4,2022-11-21,168,PD,4,Y
ONCVIZ-001,ONCVIZ-001-17-0295,TREATMENT,OVRLRESP,Overall Response per RECIST 1.1,CYCLE 1 DAY 1,1,2023-04-26,42,PR,2,Y
ONCVIZ-001,ONCVIZ-001-17-0295,TREATMENT,OVRLRESP,Overall Response per RECIST 1.1,CYCLE 2 DAY 1,2,2023-06-07,84,PR,2,Y
ONCVIZ-001,ONCVIZ-001-17-0295,TREATMENT,OVRLRESP,Overall Response per RECIST 1.1,CYCLE 3 DAY 1,3,2023-07-19,126,PR,2,Y
ONCVIZ-001,ONCVIZ-001-16-0296,TREATMENT,OVRLRESP,Overall Response per RECIST 1.1,CYCLE 1 DAY 1,1,2023-01-19,42,SD,3,Y
ONCVIZ-001,ONCVIZ-001-16-0296,TREATMENT,OVRLRESP,Overall Response per RECIST 1.1,CYCLE 2 DAY 1,2,2023-03-02,84,PD,4,Y
ONCVIZ-001,ONCVIZ-001-11-0297,CONTROL,OVRLRESP,Overall Response per RECIST 1.1,CYCLE 1 DAY 1,1,2023-04-20,42,SD,3,Y
ONCVIZ-001,ONCVIZ-001-11-0297,CONTROL,OVRLRESP,Overall Response per RECIST 1.1,CYCLE 2 DAY 1,2,2023-06-01,84,PR,2,Y
ONCVIZ-001,ONCVIZ-001-11-0297,CONTROL,OVRLRESP,Overall Response per RECIST 1.1,CYCLE 3 DAY 1,3,2023-07-13,126,PR,2,Y
ONCVIZ-001,ONCVIZ-001-11-0297,CONTROL,OVRLRESP,Overall Response per RECIST 1.1,CYCLE 4 DAY 1,4,2023-08-24,168,PR,2,Y
ONCVIZ-001,ONCVIZ-001-11-0297,CONTROL,OVRLRESP,Overall Response per RECIST 1.1,CYCLE 5 DAY 1,5,2023-10-05,210,PR,2,Y
ONCVIZ-001,ONCVIZ-001-11-0297,CONTROL,OVRLRESP,Overall Response per RECIST 1.1,CYCLE 6 DAY 1,6,2023-11-16,252,SD,3,Y
ONCVIZ-001,ONCVIZ-001-11-0297,CONTROL,OVRLRESP,Overall Response per RECIST 1.1,CYCLE 7 DAY 1,7,2023-12-28,294,PR,2,Y
ONCVIZ-001,ONCVIZ-001-11-0297,CONTROL,OVRLRESP,Overall Response per RECIST 1.1,CYCLE 8 DAY 1,8,2024-02-08,336,PR,2,Y
ONCVIZ-001,ONCVIZ-001-11-0297,CONTROL,OVRLRESP,Overall Response per RECIST 1.1,CYCLE 9 DAY 1,9,2024-03-21,378,SD,3,Y
ONCVIZ-001,ONCVIZ-001-11-0297,CONTROL,OVRLRESP,Overall Response per RECIST 1.1,CYCLE 10 DAY 1,10,2024-05-02,420,PR,2,Y
ONCVIZ-001,ONCVIZ-001-11-0297,CONTROL,OVRLRESP,Overall Response per RECIST 1.1,CYCLE 11 DAY 1,11,2024-06-13,462,SD,3,Y
ONCVIZ-001,ONCVIZ-001-11-0297,CONTROL,OVRLRESP,Overall Response per RECIST 1.1,CYCLE 12 DAY 1,12,2024-07-25,504,PD,4,Y
ONCVIZ-001,ONCVIZ-001-10-0298,TREATMENT,OVRLRESP,Overall Response per RECIST 1.1,CYCLE 1 DAY 1,1,2023-11-30,42,SD,3,Y
ONCVIZ-001,ONCVIZ-001-10-0298,TREATMENT,OVRLRESP,Overall Response per RECIST 1.1,CYCLE 2 DAY 1,2,2024-01-11,84,PD,4,Y
ONCVIZ-001,ONCVIZ-001-02-0299,CONTROL,OVRLRESP,Overall Response per RECIST 1.1,CYCLE 1 DAY 1,1,2022-12-01,42,SD,3,Y
ONCVIZ-001,ONCVIZ-001-02-0299,CONTROL,OVRLRESP,Overall Response per RECIST 1.1,CYCLE 2 DAY 1,2,2023-01-12,84,SD,3,Y
ONCVIZ-001,ONCVIZ-001-02-0299,CONTROL,OVRLRESP,Overall Response per RECIST 1.1,CYCLE 3 DAY 1,3,2023-02-23,126,SD,3,Y
ONCVIZ-001,ONCVIZ-001-02-0299,CONTROL,OVRLRESP,Overall Response per RECIST 1.1,CYCLE 4 DAY 1,4,2023-04-06,168,PD,4,Y
ONCVIZ-001,ONCVIZ-001-04-0300,TREATMENT,OVRLRESP,Overall Response per RECIST 1.1,CYCLE 1 DAY 1,1,2024-01-04,42,PR,2,Y
ONCVIZ-001,ONCVIZ-001-05-0301,TREATMENT,OVRLRESP,Overall Response per RECIST 1.1,CYCLE 1 DAY 1,1,2023-09-27,42,PD,4,Y
ONCVIZ-001,ONCVIZ-001-04-0302,TREATMENT,OVRLRESP,Overall Response per RECIST 1.1,CYCLE 1 DAY 1,1,2023-04-13,42,PR,2,Y
ONCVIZ-001,ONCVIZ-001-04-0302,TREATMENT,OVRLRESP,Overall Response per RECIST 1.1,CYCLE 2 DAY 1,2,2023-05-25,84,PD,4,Y
ONCVIZ-001,ONCVIZ-001-04-0303,TREATMENT,OVRLRESP,Overall Response per RECIST 1.1,CYCLE 1 DAY 1,1,2023-03-23,42,PR,2,Y
ONCVIZ-001,ONCVIZ-001-04-0303,TREATMENT,OVRLRESP,Overall Response per RECIST 1.1,CYCLE 2 DAY 1,2,2023-05-04,84,PR,2,Y
ONCVIZ-001,ONCVIZ-001-04-0303,TREATMENT,OVRLRESP,Overall Response per RECIST 1.1,CYCLE 3 DAY 1,3,2023-06-15,126,PR,2,Y
ONCVIZ-001,ONCVIZ-001-04-0303,TREATMENT,OVRLRESP,Overall Response per RECIST 1.1,CYCLE 4 DAY 1,4,2023-07-27,168,PR,2,Y
ONCVIZ-001,ONCVIZ-001-04-0303,TREATMENT,OVRLRESP,Overall Response per RECIST 1.1,CYCLE 5 DAY 1,5,2023-09-07,210,PR,2,Y
ONCVIZ-001,ONCVIZ-001-04-0303,TREATMENT,OVRLRESP,Overall Response per RECIST 1.1,CYCLE 6 DAY 1,6,2023-10-19,252,CR,1,Y
ONCVIZ-001,ONCVIZ-001-04-0303,TREATMENT,OVRLRESP,Overall Response per RECIST 1.1,CYCLE 7 DAY 1,7,2023-11-30,294,CR,1,Y
ONCVIZ-001,ONCVIZ-001-04-0303,TREATMENT,OVRLRESP,Overall Response per RECIST 1.1,CYCLE 8 DAY 1,8,2024-01-11,336,CR,1,Y
ONCVIZ-001,ONCVIZ-001-04-0303,TREATMENT,OVRLRESP,Overall Response per RECIST 1.1,CYCLE 9 DAY 1,9,2024-02-22,378,CR,1,Y
ONCVIZ-001,ONCVIZ-001-04-0303,TREATMENT,OVRLRESP,Overall Response per RECIST 1.1,CYCLE 10 DAY 1,10,2024-04-04,420,CR,1,Y
ONCVIZ-001,ONCVIZ-001-04-0303,TREATMENT,OVRLRESP,Overall Response per RECIST 1.1,CYCLE 11 DAY 1,11,2024-05-16,462,CR,1,Y
ONCVIZ-001,ONCVIZ-001-04-0303,TREATMENT,OVRLRESP,Overall Response per RECIST 1.1,CYCLE 12 DAY 1,12,2024-06-27,504,CR,1,Y
ONCVIZ-001,ONCVIZ-001-04-0303,TREATMENT,OVRLRESP,Overall Response per RECIST 1.1,CYCLE 13 DAY 1,13,2024-08-08,546,CR,1,Y
ONCVIZ-001,ONCVIZ-001-04-0303,TREATMENT,OVRLRESP,Overall Response per RECIST 1.1,CYCLE 14 DAY 1,14,2024-09-19,588,CR,1,Y
ONCVIZ-001,ONCVIZ-001-04-0303,TREATMENT,OVRLRESP,Overall Response per RECIST 1.1,CYCLE 15 DAY 1,15,2024-10-31,630,CR,1,Y
ONCVIZ-001,ONCVIZ-001-04-0303,TREATMENT,OVRLRESP,Overall Response per RECIST 1.1,CYCLE 16 DAY 1,16,2024-12-12,672,CR,1,Y
ONCVIZ-001,ONCVIZ-001-04-0303,TREATMENT,OVRLRESP,Overall Response per RECIST 1.1,CYCLE 17 DAY 1,17,2025-01-23,714,CR,1,Y
ONCVIZ-001,ONCVIZ-001-04-0303,TREATMENT,OVRLRESP,Overall Response per RECIST 1.1,CYCLE 18 DAY 1,18,2025-03-06,756,CR,1,Y
ONCVIZ-001,ONCVIZ-001-04-0303,TREATMENT,OVRLRESP,Overall Response per RECIST 1.1,CYCLE 19 DAY 1,19,2025-04-17,798,CR,1,Y
ONCVIZ-001,ONCVIZ-001-04-0303,TREATMENT,OVRLRESP,Overall Response per RECIST 1.1,CYCLE 20 DAY 1,20,2025-05-29,840,SD,3,Y
ONCVIZ-001,ONCVIZ-001-04-0303,TREATMENT,OVRLRESP,Overall Response per RECIST 1.1,CYCLE 21 DAY 1,21,2025-07-10,882,SD,3,Y
ONCVIZ-001,ONCVIZ-001-04-0303,TREATMENT,OVRLRESP,Overall Response per RECIST 1.1,CYCLE 22 DAY 1,22,2025-08-21,924,SD,3,Y
ONCVIZ-001,ONCVIZ-001-04-0303,TREATMENT,OVRLRESP,Overall Response per RECIST 1.1,CYCLE 23 DAY 1,23,2025-10-02,966,PD,4,Y
ONCVIZ-001,ONCVIZ-001-06-0304,CONTROL,OVRLRESP,Overall Response per RECIST 1.1,CYCLE 1 DAY 1,1,2023-02-23,42,SD,3,Y
ONCVIZ-001,ONCVIZ-001-06-0304,CONTROL,OVRLRESP,Overall Response per RECIST 1.1,CYCLE 2 DAY 1,2,2023-04-06,84,SD,3,Y
ONCVIZ-001,ONCVIZ-001-06-0304,CONTROL,OVRLRESP,Overall Response per RECIST 1.1,CYCLE 3 DAY 1,3,2023-05-18,126,PR,2,Y
ONCVIZ-001,ONCVIZ-001-06-0304,CONTROL,OVRLRESP,Overall Response per RECIST 1.1,CYCLE 4 DAY 1,4,2023-06-29,168,PR,2,Y
ONCVIZ-001,ONCVIZ-001-06-0304,CONTROL,OVRLRESP,Overall Response per RECIST 1.1,CYCLE 5 DAY 1,5,2023-08-10,210,PR,2,Y
ONCVIZ-001,ONCVIZ-001-03-0305,TREATMENT,OVRLRESP,Overall Response per RECIST 1.1,CYCLE 1 DAY 1,1,2023-07-03,42,CR,1,Y
ONCVIZ-001,ONCVIZ-001-03-0305,TREATMENT,OVRLRESP,Overall Response per RECIST 1.1,CYCLE 2 DAY 1,2,2023-08-14,84,CR,1,Y
ONCVIZ-001,ONCVIZ-001-03-0305,TREATMENT,OVRLRESP,Overall Response per RECIST 1.1,CYCLE 3 DAY 1,3,2023-09-25,126,PR,2,Y
ONCVIZ-001,ONCVIZ-001-03-0305,TREATMENT,OVRLRESP,Overall Response per RECIST 1.1,CYCLE 4 DAY 1,4,2023-11-06,168,PR,2,Y
ONCVIZ-001,ONCVIZ-001-03-0305,TREATMENT,OVRLRESP,Overall Response per RECIST 1.1,CYCLE 5 DAY 1,5,2023-12-18,210,PR,2,Y
ONCVIZ-001,ONCVIZ-001-03-0305,TREATMENT,OVRLRESP,Overall Response per RECIST 1.1,CYCLE 6 DAY 1,6,2024-01-29,252,PR,2,Y
ONCVIZ-001,ONCVIZ-001-03-0305,TREATMENT,OVRLRESP,Overall Response per RECIST 1.1,CYCLE 7 DAY 1,7,2024-03-11,294,PR,2,Y
ONCVIZ-001,ONCVIZ-001-03-0305,TREATMENT,OVRLRESP,Overall Response per RECIST 1.1,CYCLE 8 DAY 1,8,2024-04-22,336,PR,2,Y
ONCVIZ-001,ONCVIZ-001-03-0305,TREATMENT,OVRLRESP,Overall Response per RECIST 1.1,CYCLE 9 DAY 1,9,2024-06-03,378,SD,3,Y
ONCVIZ-001,ONCVIZ-001-03-0305,TREATMENT,OVRLRESP,Overall Response per RECIST 1.1,CYCLE 10 DAY 1,10,2024-07-15,420,SD,3,Y
ONCVIZ-001,ONCVIZ-001-03-0305,TREATMENT,OVRLRESP,Overall Response per RECIST 1.1,CYCLE 11 DAY 1,11,2024-08-26,462,SD,3,Y
ONCVIZ-001,ONCVIZ-001-03-0305,TREATMENT,OVRLRESP,Overall Response per RECIST 1.1,CYCLE 12 DAY 1,12,2024-10-07,504,SD,3,Y
ONCVIZ-001,ONCVIZ-001-03-0305,TREATMENT,OVRLRESP,Overall Response per RECIST 1.1,CYCLE 13 DAY 1,13,2024-11-18,546,PD,4,Y
ONCVIZ-001,ONCVIZ-001-17-0306,CONTROL,OVRLRESP,Overall Response per RECIST 1.1,CYCLE 1 DAY 1,1,2023-01-30,42,SD,3,Y
ONCVIZ-001,ONCVIZ-001-17-0306,CONTROL,OVRLRESP,Overall Response per RECIST 1.1,CYCLE 2 DAY 1,2,2023-03-13,84,SD,3,Y
ONCVIZ-001,ONCVIZ-001-17-0306,CONTROL,OVRLRESP,Overall Response per RECIST 1.1,CYCLE 3 DAY 1,3,2023-04-24,126,PD,4,Y
ONCVIZ-001,ONCVIZ-001-13-0307,TREATMENT,OVRLRESP,Overall Response per RECIST 1.1,CYCLE 1 DAY 1,1,2023-10-08,42,SD,3,Y
ONCVIZ-001,ONCVIZ-001-13-0307,TREATMENT,OVRLRESP,Overall Response per RECIST 1.1,CYCLE 2 DAY 1,2,2023-11-19,84,PD,4,Y
ONCVIZ-001,ONCVIZ-001-14-0308,TREATMENT,OVRLRESP,Overall Response per RECIST 1.1,CYCLE 1 DAY 1,1,2022-10-30,42,CR,1,Y
ONCVIZ-001,ONCVIZ-001-14-0308,TREATMENT,OVRLRESP,Overall Response per RECIST 1.1,CYCLE 2 DAY 1,2,2022-12-11,84,CR,1,Y
ONCVIZ-001,ONCVIZ-001-14-0308,TREATMENT,OVRLRESP,Overall Response per RECIST 1.1,CYCLE 3 DAY 1,3,2023-01-22,126,SD,3,Y
ONCVIZ-001,ONCVIZ-001-14-0308,TREATMENT,OVRLRESP,Overall Response per RECIST 1.1,CYCLE 4 DAY 1,4,2023-03-05,168,SD,3,Y
ONCVIZ-001,ONCVIZ-001-14-0308,TREATMENT,OVRLRESP,Overall Response per RECIST 1.1,CYCLE 5 DAY 1,5,2023-04-16,210,SD,3,Y
ONCVIZ-001,ONCVIZ-001-14-0308,TREATMENT,OVRLRESP,Overall Response per RECIST 1.1,CYCLE 6 DAY 1,6,2023-05-28,252,PD,4,Y
ONCVIZ-001,ONCVIZ-001-04-0309,CONTROL,OVRLRESP,Overall Response per RECIST 1.1,CYCLE 1 DAY 1,1,2023-12-12,42,PR,2,Y
ONCVIZ-001,ONCVIZ-001-04-0309,CONTROL,OVRLRESP,Overall Response per RECIST 1.1,CYCLE 2 DAY 1,2,2024-01-23,84,PD,4,Y
ONCVIZ-001,ONCVIZ-001-18-0310,TREATMENT,OVRLRESP,Overall Response per RECIST 1.1,CYCLE 1 DAY 1,1,2023-04-29,42,PR,2,Y
ONCVIZ-001,ONCVIZ-001-18-0310,TREATMENT,OVRLRESP,Overall Response per RECIST 1.1,CYCLE 2 DAY 1,2,2023-06-10,84,PR,2,Y
ONCVIZ-001,ONCVIZ-001-18-0310,TREATMENT,OVRLRESP,Overall Response per RECIST 1.1,CYCLE 3 DAY 1,3,2023-07-22,126,PD,4,Y
ONCVIZ-001,ONCVIZ-001-12-0311,CONTROL,OVRLRESP,Overall Response per RECIST 1.1,CYCLE 1 DAY 1,1,2023-08-02,42,PD,4,Y
ONCVIZ-001,ONCVIZ-001-11-0312,TREATMENT,OVRLRESP,Overall Response per RECIST 1.1,CYCLE 1 DAY 1,1,2022-08-20,42,SD,3,Y
ONCVIZ-001,ONCVIZ-001-11-0312,TREATMENT,OVRLRESP,Overall Response per RECIST 1.1,CYCLE 2 DAY 1,2,2022-10-01,84,SD,3,Y
ONCVIZ-001,ONCVIZ-001-11-0312,TREATMENT,OVRLRESP,Overall Response per RECIST 1.1,CYCLE 3 DAY 1,3,2022-11-12,126,PD,4,Y
ONCVIZ-001,ONCVIZ-001-15-0313,TREATMENT,OVRLRESP,Overall Response per RECIST 1.1,CYCLE 1 DAY 1,1,2024-01-04,42,SD,3,Y
ONCVIZ-001,ONCVIZ-001-15-0313,TREATMENT,OVRLRESP,Overall Response per RECIST 1.1,CYCLE 2 DAY 1,2,2024-02-15,84,PD,4,Y
ONCVIZ-001,ONCVIZ-001-18-0314,CONTROL,OVRLRESP,Overall Response per RECIST 1.1,CYCLE 1 DAY 1,1,2023-12-07,42,PD,4,Y
ONCVIZ-001,ONCVIZ-001-09-0315,TREATMENT,OVRLRESP,Overall Response per RECIST 1.1,CYCLE 1 DAY 1,1,2023-11-15,42,PR,2,Y
ONCVIZ-001,ONCVIZ-001-09-0315,TREATMENT,OVRLRESP,Overall Response per RECIST 1.1,CYCLE 2 DAY 1,2,2023-12-27,84,CR,1,Y
ONCVIZ-001,ONCVIZ-001-09-0315,TREATMENT,OVRLRESP,Overall Response per RECIST 1.1,CYCLE 3 DAY 1,3,2024-02-07,126,CR,1,Y
ONCVIZ-001,ONCVIZ-001-09-0315,TREATMENT,OVRLRESP,Overall Response per RECIST 1.1,CYCLE 4 DAY 1,4,2024-03-20,168,PR,2,Y
ONCVIZ-001,ONCVIZ-001-09-0315,TREATMENT,OVRLRESP,Overall Response per RECIST 1.1,CYCLE 5 DAY 1,5,2024-05-01,210,PR,2,Y
ONCVIZ-001,ONCVIZ-001-09-0315,TREATMENT,OVRLRESP,Overall Response per RECIST 1.1,CYCLE 6 DAY 1,6,2024-06-12,252,PR,2,Y
ONCVIZ-001,ONCVIZ-001-09-0315,TREATMENT,OVRLRESP,Overall Response per RECIST 1.1,CYCLE 7 DAY 1,7,2024-07-24,294,PR,2,Y
ONCVIZ-001,ONCVIZ-001-09-0315,TREATMENT,OVRLRESP,Overall Response per RECIST 1.1,CYCLE 8 DAY 1,8,2024-09-04,336,PR,2,Y
ONCVIZ-001,ONCVIZ-001-09-0315,TREATMENT,OVRLRESP,Overall Response per RECIST 1.1,CYCLE 9 DAY 1,9,2024-10-16,378,SD,3,Y
ONCVIZ-001,ONCVIZ-001-09-0315,TREATMENT,OVRLRESP,Overall Response per RECIST 1.1,CYCLE 10 DAY 1,10,2024-11-27,420,SD,3,Y
ONCVIZ-001,ONCVIZ-001-09-0315,TREATMENT,OVRLRESP,Overall Response per RECIST 1.1,CYCLE 11 DAY 1,11,2025-01-08,462,SD,3,Y
ONCVIZ-001,ONCVIZ-001-09-0315,TREATMENT,OVRLRESP,Overall Response per RECIST 1.1,CYCLE 12 DAY 1,12,2025-02-19,504,PD,4,Y
ONCVIZ-001,ONCVIZ-001-14-0316,TREATMENT,OVRLRESP,Overall Response per RECIST 1.1,CYCLE 1 DAY 1,1,2022-09-10,42,PD,4,Y
ONCVIZ-001,ONCVIZ-001-01-0317,CONTROL,OVRLRESP,Overall Response per RECIST 1.1,CYCLE 1 DAY 1,1,2023-05-08,42,PD,4,Y
ONCVIZ-001,ONCVIZ-001-12-0318,CONTROL,OVRLRESP,Overall Response per RECIST 1.1,CYCLE 1 DAY 1,1,2023-04-24,42,PD,4,Y
ONCVIZ-001,ONCVIZ-001-13-0319,TREATMENT,OVRLRESP,Overall Response per RECIST 1.1,CYCLE 1 DAY 1,1,2023-05-03,42,PR,2,Y
ONCVIZ-001,ONCVIZ-001-13-0319,TREATMENT,OVRLRESP,Overall Response per RECIST 1.1,CYCLE 2 DAY 1,2,2023-06-14,84,PD,4,Y
ONCVIZ-001,ONCVIZ-001-13-0320,TREATMENT,OVRLRESP,Overall Response per RECIST 1.1,CYCLE 1 DAY 1,1,2022-07-30,42,PD,4,Y
ONCVIZ-001,ONCVIZ-001-19-0321,CONTROL,OVRLRESP,Overall Response per RECIST 1.1,CYCLE 1 DAY 1,1,2023-04-02,42,SD,3,Y
ONCVIZ-001,ONCVIZ-001-19-0321,CONTROL,OVRLRESP,Overall Response per RECIST 1.1,CYCLE 2 DAY 1,2,2023-05-14,84,PD,4,Y
ONCVIZ-001,ONCVIZ-001-12-0322,TREATMENT,OVRLRESP,Overall Response per RECIST 1.1,CYCLE 1 DAY 1,1,2022-08-08,42,SD,3,Y
ONCVIZ-001,ONCVIZ-001-12-0322,TREATMENT,OVRLRESP,Overall Response per RECIST 1.1,CYCLE 2 DAY 1,2,2022-09-19,84,SD,3,Y
ONCVIZ-001,ONCVIZ-001-12-0322,TREATMENT,OVRLRESP,Overall Response per RECIST 1.1,CYCLE 3 DAY 1,3,2022-10-31,126,PD,4,Y
ONCVIZ-001,ONCVIZ-001-12-0323,CONTROL,OVRLRESP,Overall Response per RECIST 1.1,CYCLE 1 DAY 1,1,2023-05-09,42,PR,2,Y
ONCVIZ-001,ONCVIZ-001-04-0324,CONTROL,OVRLRESP,Overall Response per RECIST 1.1,CYCLE 1 DAY 1,1,2023-12-12,42,SD,3,Y
ONCVIZ-001,ONCVIZ-001-04-0324,CONTROL,OVRLRESP,Overall Response per RECIST 1.1,CYCLE 2 DAY 1,2,2024-01-23,84,SD,3,Y
ONCVIZ-001,ONCVIZ-001-04-0324,CONTROL,OVRLRESP,Overall Response per RECIST 1.1,CYCLE 3 DAY 1,3,2024-03-05,126,SD,3,Y
ONCVIZ-001,ONCVIZ-001-04-0325,TREATMENT,OVRLRESP,Overall Response per RECIST 1.1,CYCLE 1 DAY 1,1,2022-09-26,42,PD,4,Y
ONCVIZ-001,ONCVIZ-001-16-0326,CONTROL,OVRLRESP,Overall Response per RECIST 1.1,CYCLE 1 DAY 1,1,2023-08-10,42,SD,3,Y
ONCVIZ-001,ONCVIZ-001-16-0326,CONTROL,OVRLRESP,Overall Response per RECIST 1.1,CYCLE 2 DAY 1,2,2023-09-21,84,PD,4,Y
ONCVIZ-001,ONCVIZ-001-19-0327,CONTROL,OVRLRESP,Overall Response per RECIST 1.1,CYCLE 1 DAY 1,1,2022-08-08,42,PD,4,Y
ONCVIZ-001,ONCVIZ-001-15-0328,TREATMENT,OVRLRESP,Overall Response per RECIST 1.1,CYCLE 1 DAY 1,1,2022-08-21,42,PD,4,Y
ONCVIZ-001,ONCVIZ-001-01-0329,TREATMENT,OVRLRESP,Overall Response per RECIST 1.1,CYCLE 1 DAY 1,1,2023-07-05,42,SD,3,Y
ONCVIZ-001,ONCVIZ-001-01-0329,TREATMENT,OVRLRESP,Overall Response per RECIST 1.1,CYCLE 2 DAY 1,2,2023-08-16,84,SD,3,Y
ONCVIZ-001,ONCVIZ-001-01-0329,TREATMENT,OVRLRESP,Overall Response per RECIST 1.1,CYCLE 3 DAY 1,3,2023-09-27,126,SD,3,Y
ONCVIZ-001,ONCVIZ-001-01-0329,TREATMENT,OVRLRESP,Overall Response per RECIST 1.1,CYCLE 4 DAY 1,4,2023-11-08,168,SD,3,Y
ONCVIZ-001,ONCVIZ-001-01-0329,TREATMENT,OVRLRESP,Overall Response per RECIST 1.1,CYCLE 5 DAY 1,5,2023-12-20,210,SD,3,Y
ONCVIZ-001,ONCVIZ-001-01-0329,TREATMENT,OVRLRESP,Overall Response per RECIST 1.1,CYCLE 6 DAY 1,6,2024-01-31,252,SD,3,Y
ONCVIZ-001,ONCVIZ-001-01-0329,TREATMENT,OVRLRESP,Overall Response per RECIST 1.1,CYCLE 7 DAY 1,7,2024-03-13,294,PD,4,Y
ONCVIZ-001,ONCVIZ-001-16-0330,CONTROL,OVRLRESP,Overall Response per RECIST 1.1,CYCLE 1 DAY 1,1,2023-03-10,42,PR,2,Y
ONCVIZ-001,ONCVIZ-001-16-0330,CONTROL,OVRLRESP,Overall Response per RECIST 1.1,CYCLE 2 DAY 1,2,2023-04-21,84,PR,2,Y
ONCVIZ-001,ONCVIZ-001-16-0330,CONTROL,OVRLRESP,Overall Response per RECIST 1.1,CYCLE 3 DAY 1,3,2023-06-02,126,PD,4,Y
ONCVIZ-001,ONCVIZ-001-11-0331,TREATMENT,OVRLRESP,Overall Response per RECIST 1.1,CYCLE 1 DAY 1,1,2022-10-13,42,PR,2,Y
ONCVIZ-001,ONCVIZ-001-11-0331,TREATMENT,OVRLRESP,Overall Response per RECIST 1.1,CYCLE 2 DAY 1,2,2022-11-24,84,PR,2,Y
ONCVIZ-001,ONCVIZ-001-11-0331,TREATMENT,OVRLRESP,Overall Response per RECIST 1.1,CYCLE 3 DAY 1,3,2023-01-05,126,PR,2,Y
ONCVIZ-001,ONCVIZ-001-11-0331,TREATMENT,OVRLRESP,Overall Response per RECIST 1.1,CYCLE 4 DAY 1,4,2023-02-16,168,CR,1,Y
ONCVIZ-001,ONCVIZ-001-11-0331,TREATMENT,OVRLRESP,Overall Response per RECIST 1.1,CYCLE 5 DAY 1,5,2023-03-30,210,SD,3,Y
ONCVIZ-001,ONCVIZ-001-11-0331,TREATMENT,OVRLRESP,Overall Response per RECIST 1.1,CYCLE 6 DAY 1,6,2023-05-11,252,SD,3,Y
ONCVIZ-001,ONCVIZ-001-11-0331,TREATMENT,OVRLRESP,Overall Response per RECIST 1.1,CYCLE 7 DAY 1,7,2023-06-22,294,SD,3,Y
ONCVIZ-001,ONCVIZ-001-11-0331,TREATMENT,OVRLRESP,Overall Response per RECIST 1.1,CYCLE 8 DAY 1,8,2023-08-03,336,SD,3,Y
ONCVIZ-001,ONCVIZ-001-11-0331,TREATMENT,OVRLRESP,Overall Response per RECIST 1.1,CYCLE 9 DAY 1,9,2023-09-14,378,PD,4,Y
ONCVIZ-001,ONCVIZ-001-12-0332,TREATMENT,OVRLRESP,Overall Response per RECIST 1.1,CYCLE 1 DAY 1,1,2023-08-03,42,PD,4,Y
ONCVIZ-001,ONCVIZ-001-14-0333,TREATMENT,OVRLRESP,Overall Response per RECIST 1.1,CYCLE 1 DAY 1,1,2023-12-13,42,PR,2,Y
ONCVIZ-001,ONCVIZ-001-14-0333,TREATMENT,OVRLRESP,Overall Response per RECIST 1.1,CYCLE 2 DAY 1,2,2024-01-24,84,SD,3,Y
ONCVIZ-001,ONCVIZ-001-14-0333,TREATMENT,OVRLRESP,Overall Response per RECIST 1.1,CYCLE 3 DAY 1,3,2024-03-06,126,SD,3,Y
ONCVIZ-001,ONCVIZ-001-14-0333,TREATMENT,OVRLRESP,Overall Response per RECIST 1.1,CYCLE 4 DAY 1,4,2024-04-17,168,SD,3,Y
ONCVIZ-001,ONCVIZ-001-14-0333,TREATMENT,OVRLRESP,Overall Response per RECIST 1.1,CYCLE 5 DAY 1,5,2024-05-29,210,SD,3,Y
ONCVIZ-001,ONCVIZ-001-14-0333,TREATMENT,OVRLRESP,Overall Response per RECIST 1.1,CYCLE 6 DAY 1,6,2024-07-10,252,PD,4,Y
ONCVIZ-001,ONCVIZ-001-04-0334,TREATMENT,OVRLRESP,Overall Response per RECIST 1.1,CYCLE 1 DAY 1,1,2023-06-23,42,PD,4,Y
ONCVIZ-001,ONCVIZ-001-18-0335,CONTROL,OVRLRESP,Overall Response per RECIST 1.1,CYCLE 1 DAY 1,1,2023-11-23,42,PD,4,Y
ONCVIZ-001,ONCVIZ-001-10-0336,CONTROL,OVRLRESP,Overall Response per RECIST 1.1,CYCLE 1 DAY 1,1,2023-11-06,42,SD,3,Y
ONCVIZ-001,ONCVIZ-001-10-0336,CONTROL,OVRLRESP,Overall Response per RECIST 1.1,CYCLE 2 DAY 1,2,2023-12-18,84,SD,3,Y
ONCVIZ-001,ONCVIZ-001-10-0336,CONTROL,OVRLRESP,Overall Response per RECIST 1.1,CYCLE 3 DAY 1,3,2024-01-29,126,PR,2,Y
ONCVIZ-001,ONCVIZ-001-10-0336,CONTROL,OVRLRESP,Overall Response per RECIST 1.1,CYCLE 4 DAY 1,4,2024-03-11,168,PD,4,Y
ONCVIZ-001,ONCVIZ-001-11-0337,TREATMENT,OVRLRESP,Overall Response per RECIST 1.1,CYCLE 1 DAY 1,1,2022-11-19,42,PR,2,Y
ONCVIZ-001,ONCVIZ-001-11-0337,TREATMENT,OVRLRESP,Overall Response per RECIST 1.1,CYCLE 2 DAY 1,2,2022-12-31,84,PR,2,Y
ONCVIZ-001,ONCVIZ-001-11-0337,TREATMENT,OVRLRESP,Overall Response per RECIST 1.1,CYCLE 3 DAY 1,3,2023-02-11,126,PR,2,Y
ONCVIZ-001,ONCVIZ-001-11-0337,TREATMENT,OVRLRESP,Overall Response per RECIST 1.1,CYCLE 4 DAY 1,4,2023-03-25,168,PR,2,Y
ONCVIZ-001,ONCVIZ-001-20-0338,CONTROL,OVRLRESP,Overall Response per RECIST 1.1,CYCLE 1 DAY 1,1,2023-12-29,42,SD,3,Y
ONCVIZ-001,ONCVIZ-001-20-0338,CONTROL,OVRLRESP,Overall Response per RECIST 1.1,CYCLE 2 DAY 1,2,2024-02-09,84,PD,4,Y
ONCVIZ-001,ONCVIZ-001-14-0339,TREATMENT,OVRLRESP,Overall Response per RECIST 1.1,CYCLE 1 DAY 1,1,2022-10-17,42,SD,3,Y
ONCVIZ-001,ONCVIZ-001-14-0339,TREATMENT,OVRLRESP,Overall Response per RECIST 1.1,CYCLE 2 DAY 1,2,2022-11-28,84,SD,3,Y
ONCVIZ-001,ONCVIZ-001-14-0339,TREATMENT,OVRLRESP,Overall Response per RECIST 1.1,CYCLE 3 DAY 1,3,2023-01-09,126,SD,3,Y
ONCVIZ-001,ONCVIZ-001-14-0339,TREATMENT,OVRLRESP,Overall Response per RECIST 1.1,CYCLE 4 DAY 1,4,2023-02-20,168,SD,3,Y
ONCVIZ-001,ONCVIZ-001-14-0339,TREATMENT,OVRLRESP,Overall Response per RECIST 1.1,CYCLE 5 DAY 1,5,2023-04-03,210,PD,4,Y
ONCVIZ-001,ONCVIZ-001-16-0340,TREATMENT,OVRLRESP,Overall Response per RECIST 1.1,CYCLE 1 DAY 1,1,2022-11-12,42,PR,2,Y
ONCVIZ-001,ONCVIZ-001-16-0340,TREATMENT,OVRLRESP,Overall Response per RECIST 1.1,CYCLE 2 DAY 1,2,2022-12-24,84,PR,2,Y
ONCVIZ-001,ONCVIZ-001-16-0340,TREATMENT,OVRLRESP,Overall Response per RECIST 1.1,CYCLE 3 DAY 1,3,2023-02-04,126,PD,4,Y
ONCVIZ-001,ONCVIZ-001-07-0341,TREATMENT,OVRLRESP,Overall Response per RECIST 1.1,CYCLE 1 DAY 1,1,2023-09-05,42,CR,1,Y
ONCVIZ-001,ONCVIZ-001-07-0341,TREATMENT,OVRLRESP,Overall Response per RECIST 1.1,CYCLE 2 DAY 1,2,2023-10-17,84,CR,1,Y
ONCVIZ-001,ONCVIZ-001-07-0341,TREATMENT,OVRLRESP,Overall Response per RECIST 1.1,CYCLE 3 DAY 1,3,2023-11-28,126,CR,1,Y
ONCVIZ-001,ONCVIZ-001-07-0341,TREATMENT,OVRLRESP,Overall Response per RECIST 1.1,CYCLE 4 DAY 1,4,2024-01-09,168,CR,1,Y
ONCVIZ-001,ONCVIZ-001-07-0341,TREATMENT,OVRLRESP,Overall Response per RECIST 1.1,CYCLE 5 DAY 1,5,2024-02-20,210,CR,1,Y
ONCVIZ-001,ONCVIZ-001-07-0341,TREATMENT,OVRLRESP,Overall Response per RECIST 1.1,CYCLE 6 DAY 1,6,2024-04-02,252,CR,1,Y
ONCVIZ-001,ONCVIZ-001-07-0341,TREATMENT,OVRLRESP,Overall Response per RECIST 1.1,CYCLE 7 DAY 1,7,2024-05-14,294,CR,1,Y
ONCVIZ-001,ONCVIZ-001-07-0341,TREATMENT,OVRLRESP,Overall Response per RECIST 1.1,CYCLE 8 DAY 1,8,2024-06-25,336,PR,2,Y
ONCVIZ-001,ONCVIZ-001-07-0341,TREATMENT,OVRLRESP,Overall Response per RECIST 1.1,CYCLE 9 DAY 1,9,2024-08-06,378,PR,2,Y
ONCVIZ-001,ONCVIZ-001-07-0341,TREATMENT,OVRLRESP,Overall Response per RECIST 1.1,CYCLE 10 DAY 1,10,2024-09-17,420,PR,2,Y
ONCVIZ-001,ONCVIZ-001-07-0341,TREATMENT,OVRLRESP,Overall Response per RECIST 1.1,CYCLE 11 DAY 1,11,2024-10-29,462,CR,1,Y
ONCVIZ-001,ONCVIZ-001-07-0341,TREATMENT,OVRLRESP,Overall Response per RECIST 1.1,CYCLE 12 DAY 1,12,2024-12-10,504,SD,3,Y
ONCVIZ-001,ONCVIZ-001-07-0341,TREATMENT,OVRLRESP,Overall Response per RECIST 1.1,CYCLE 13 DAY 1,13,2025-01-21,546,SD,3,Y
ONCVIZ-001,ONCVIZ-001-07-0341,TREATMENT,OVRLRESP,Overall Response per RECIST 1.1,CYCLE 14 DAY 1,14,2025-03-04,588,SD,3,Y
ONCVIZ-001,ONCVIZ-001-07-0341,TREATMENT,OVRLRESP,Overall Response per RECIST 1.1,CYCLE 15 DAY 1,15,2025-04-15,630,SD,3,Y
ONCVIZ-001,ONCVIZ-001-07-0341,TREATMENT,OVRLRESP,Overall Response per RECIST 1.1,CYCLE 16 DAY 1,16,2025-05-27,672,PR,2,Y
ONCVIZ-001,ONCVIZ-001-07-0341,TREATMENT,OVRLRESP,Overall Response per RECIST 1.1,CYCLE 17 DAY 1,17,2025-07-08,714,PD,4,Y
ONCVIZ-001,ONCVIZ-001-04-0342,TREATMENT,OVRLRESP,Overall Response per RECIST 1.1,CYCLE 1 DAY 1,1,2022-11-25,42,PD,4,Y
ONCVIZ-001,ONCVIZ-001-08-0343,CONTROL,OVRLRESP,Overall Response per RECIST 1.1,CYCLE 1 DAY 1,1,2023-12-10,42,PD,4,Y
ONCVIZ-001,ONCVIZ-001-09-0344,TREATMENT,OVRLRESP,Overall Response per RECIST 1.1,CYCLE 1 DAY 1,1,2023-10-23,42,CR,1,Y
ONCVIZ-001,ONCVIZ-001-09-0344,TREATMENT,OVRLRESP,Overall Response per RECIST 1.1,CYCLE 2 DAY 1,2,2023-12-04,84,CR,1,Y
ONCVIZ-001,ONCVIZ-001-09-0344,TREATMENT,OVRLRESP,Overall Response per RECIST 1.1,CYCLE 3 DAY 1,3,2024-01-15,126,CR,1,Y
ONCVIZ-001,ONCVIZ-001-09-0344,TREATMENT,OVRLRESP,Overall Response per RECIST 1.1,CYCLE 4 DAY 1,4,2024-02-26,168,CR,1,Y
ONCVIZ-001,ONCVIZ-001-09-0344,TREATMENT,OVRLRESP,Overall Response per RECIST 1.1,CYCLE 5 DAY 1,5,2024-04-08,210,SD,3,Y
ONCVIZ-001,ONCVIZ-001-20-0345,TREATMENT,OVRLRESP,Overall Response per RECIST 1.1,CYCLE 1 DAY 1,1,2022-10-13,42,PD,4,Y
ONCVIZ-001,ONCVIZ-001-05-0346,TREATMENT,OVRLRESP,Overall Response per RECIST 1.1,CYCLE 1 DAY 1,1,2023-08-26,42,PR,2,Y
ONCVIZ-001,ONCVIZ-001-05-0346,TREATMENT,OVRLRESP,Overall Response per RECIST 1.1,CYCLE 2 DAY 1,2,2023-10-07,84,PR,2,Y
ONCVIZ-001,ONCVIZ-001-05-0346,TREATMENT,OVRLRESP,Overall Response per RECIST 1.1,CYCLE 3 DAY 1,3,2023-11-18,126,PR,2,Y
ONCVIZ-001,ONCVIZ-001-03-0347,TREATMENT,OVRLRESP,Overall Response per RECIST 1.1,CYCLE 1 DAY 1,1,2023-04-06,42,SD,3,Y
ONCVIZ-001,ONCVIZ-001-03-0347,TREATMENT,OVRLRESP,Overall Response per RECIST 1.1,CYCLE 2 DAY 1,2,2023-05-18,84,PD,4,Y
ONCVIZ-001,ONCVIZ-001-12-0348,CONTROL,OVRLRESP,Overall Response per RECIST 1.1,CYCLE 1 DAY 1,1,2023-01-12,42,SD,3,Y
ONCVIZ-001,ONCVIZ-001-12-0348,CONTROL,OVRLRESP,Overall Response per RECIST 1.1,CYCLE 2 DAY 1,2,2023-02-23,84,SD,3,Y
ONCVIZ-001,ONCVIZ-001-12-0348,CONTROL,OVRLRESP,Overall Response per RECIST 1.1,CYCLE 3 DAY 1,3,2023-04-06,126,PD,4,Y
ONCVIZ-001,ONCVIZ-001-19-0349,TREATMENT,OVRLRESP,Overall Response per RECIST 1.1,CYCLE 1 DAY 1,1,2022-08-19,42,PR,2,Y
ONCVIZ-001,ONCVIZ-001-19-0349,TREATMENT,OVRLRESP,Overall Response per RECIST 1.1,CYCLE 2 DAY 1,2,2022-09-30,84,CR,1,Y
ONCVIZ-001,ONCVIZ-001-19-0349,TREATMENT,OVRLRESP,Overall Response per RECIST 1.1,CYCLE 3 DAY 1,3,2022-11-11,126,CR,1,Y
ONCVIZ-001,ONCVIZ-001-19-0349,TREATMENT,OVRLRESP,Overall Response per RECIST 1.1,CYCLE 4 DAY 1,4,2022-12-23,168,CR,1,Y
ONCVIZ-001,ONCVIZ-001-19-0349,TREATMENT,OVRLRESP,Overall Response per RECIST 1.1,CYCLE 5 DAY 1,5,2023-02-03,210,CR,1,Y
ONCVIZ-001,ONCVIZ-001-19-0349,TREATMENT,OVRLRESP,Overall Response per RECIST 1.1,CYCLE 6 DAY 1,6,2023-03-17,252,CR,1,Y
ONCVIZ-001,ONCVIZ-001-19-0349,TREATMENT,OVRLRESP,Overall Response per RECIST 1.1,CYCLE 7 DAY 1,7,2023-04-28,294,SD,3,Y
ONCVIZ-001,ONCVIZ-001-19-0349,TREATMENT,OVRLRESP,Overall Response per RECIST 1.1,CYCLE 8 DAY 1,8,2023-06-09,336,PD,4,Y
ONCVIZ-001,ONCVIZ-001-14-0350,CONTROL,OVRLRESP,Overall Response per RECIST 1.1,CYCLE 1 DAY 1,1,2023-04-02,42,PD,4,Y
ONCVIZ-001,ONCVIZ-001-10-0351,TREATMENT,OVRLRESP,Overall Response per RECIST 1.1,CYCLE 1 DAY 1,1,2023-06-03,42,SD,3,Y
ONCVIZ-001,ONCVIZ-001-10-0351,TREATMENT,OVRLRESP,Overall Response per RECIST 1.1,CYCLE 2 DAY 1,2,2023-07-15,84,PD,4,Y
ONCVIZ-001,ONCVIZ-001-20-0352,CONTROL,OVRLRESP,Overall Response per RECIST 1.1,CYCLE 1 DAY 1,1,2023-07-26,42,PD,4,Y
ONCVIZ-001,ONCVIZ-001-20-0353,TREATMENT,OVRLRESP,Overall Response per RECIST 1.1,CYCLE 1 DAY 1,1,2023-04-24,42,PD,4,Y
ONCVIZ-001,ONCVIZ-001-18-0354,TREATMENT,OVRLRESP,Overall Response per RECIST 1.1,CYCLE 1 DAY 1,1,2023-09-04,42,PR,2,Y
ONCVIZ-001,ONCVIZ-001-18-0354,TREATMENT,OVRLRESP,Overall Response per RECIST 1.1,CYCLE 2 DAY 1,2,2023-10-16,84,PR,2,Y
ONCVIZ-001,ONCVIZ-001-18-0354,TREATMENT,OVRLRESP,Overall Response per RECIST 1.1,CYCLE 3 DAY 1,3,2023-11-27,126,PR,2,Y
ONCVIZ-001,ONCVIZ-001-18-0354,TREATMENT,OVRLRESP,Overall Response per RECIST 1.1,CYCLE 4 DAY 1,4,2024-01-08,168,SD,3,Y
ONCVIZ-001,ONCVIZ-001-18-0354,TREATMENT,OVRLRESP,Overall Response per RECIST 1.1,CYCLE 5 DAY 1,5,2024-02-19,210,SD,3,Y
ONCVIZ-001,ONCVIZ-001-18-0354,TREATMENT,OVRLRESP,Overall Response per RECIST 1.1,CYCLE 6 DAY 1,6,2024-04-01,252,PD,4,Y
ONCVIZ-001,ONCVIZ-001-01-0355,CONTROL,OVRLRESP,Overall Response per RECIST 1.1,CYCLE 1 DAY 1,1,2023-06-17,42,PD,4,Y
ONCVIZ-001,ONCVIZ-001-14-0356,CONTROL,OVRLRESP,Overall Response per RECIST 1.1,CYCLE 1 DAY 1,1,2022-12-09,42,SD,3,Y
ONCVIZ-001,ONCVIZ-001-14-0356,CONTROL,OVRLRESP,Overall Response per RECIST 1.1,CYCLE 2 DAY 1,2,2023-01-20,84,SD,3,Y
ONCVIZ-001,ONCVIZ-001-14-0356,CONTROL,OVRLRESP,Overall Response per RECIST 1.1,CYCLE 3 DAY 1,3,2023-03-03,126,SD,3,Y
ONCVIZ-001,ONCVIZ-001-14-0356,CONTROL,OVRLRESP,Overall Response per RECIST 1.1,CYCLE 4 DAY 1,4,2023-04-14,168,PD,4,Y
ONCVIZ-001,ONCVIZ-001-11-0357,TREATMENT,OVRLRESP,Overall Response per RECIST 1.1,CYCLE 1 DAY 1,1,2023-05-23,42,PR,2,Y
ONCVIZ-001,ONCVIZ-001-11-0357,TREATMENT,OVRLRESP,Overall Response per RECIST 1.1,CYCLE 2 DAY 1,2,2023-07-04,84,PR,2,Y
ONCVIZ-001,ONCVIZ-001-11-0357,TREATMENT,OVRLRESP,Overall Response per RECIST 1.1,CYCLE 3 DAY 1,3,2023-08-15,126,SD,3,Y
ONCVIZ-001,ONCVIZ-001-11-0357,TREATMENT,OVRLRESP,Overall Response per RECIST 1.1,CYCLE 4 DAY 1,4,2023-09-26,168,SD,3,Y
ONCVIZ-001,ONCVIZ-001-11-0357,TREATMENT,OVRLRESP,Overall Response per RECIST 1.1,CYCLE 5 DAY 1,5,2023-11-07,210,SD,3,Y
ONCVIZ-001,ONCVIZ-001-11-0357,TREATMENT,OVRLRESP,Overall Response per RECIST 1.1,CYCLE 6 DAY 1,6,2023-12-19,252,SD,3,Y
ONCVIZ-001,ONCVIZ-001-11-0357,TREATMENT,OVRLRESP,Overall Response per RECIST 1.1,CYCLE 7 DAY 1,7,2024-01-30,294,PD,4,Y
ONCVIZ-001,ONCVIZ-001-05-0358,TREATMENT,OVRLRESP,Overall Response per RECIST 1.1,CYCLE 1 DAY 1,1,2023-01-08,42,SD,3,Y
ONCVIZ-001,ONCVIZ-001-05-0358,TREATMENT,OVRLRESP,Overall Response per RECIST 1.1,CYCLE 2 DAY 1,2,2023-02-19,84,PR,2,Y
ONCVIZ-001,ONCVIZ-001-05-0358,TREATMENT,OVRLRESP,Overall Response per RECIST 1.1,CYCLE 3 DAY 1,3,2023-04-02,126,PD,4,Y
ONCVIZ-001,ONCVIZ-001-05-0359,TREATMENT,OVRLRESP,Overall Response per RECIST 1.1,CYCLE 1 DAY 1,1,2022-09-08,42,PR,2,Y
ONCVIZ-001,ONCVIZ-001-05-0359,TREATMENT,OVRLRESP,Overall Response per RECIST 1.1,CYCLE 2 DAY 1,2,2022-10-20,84,PR,2,Y
ONCVIZ-001,ONCVIZ-001-05-0359,TREATMENT,OVRLRESP,Overall Response per RECIST 1.1,CYCLE 3 DAY 1,3,2022-12-01,126,PD,4,Y
ONCVIZ-001,ONCVIZ-001-15-0360,TREATMENT,OVRLRESP,Overall Response per RECIST 1.1,CYCLE 1 DAY 1,1,2023-02-18,42,SD,3,Y
ONCVIZ-001,ONCVIZ-001-15-0360,TREATMENT,OVRLRESP,Overall Response per RECIST 1.1,CYCLE 2 DAY 1,2,2023-04-01,84,PD,4,Y
ONCVIZ-001,ONCVIZ-001-07-0361,TREATMENT,OVRLRESP,Overall Response per RECIST 1.1,CYCLE 1 DAY 1,1,2023-12-02,42,PR,2,Y
ONCVIZ-001,ONCVIZ-001-07-0361,TREATMENT,OVRLRESP,Overall Response per RECIST 1.1,CYCLE 2 DAY 1,2,2024-01-13,84,PR,2,Y
ONCVIZ-001,ONCVIZ-001-07-0361,TREATMENT,OVRLRESP,Overall Response per RECIST 1.1,CYCLE 3 DAY 1,3,2024-02-24,126,PR,2,Y
ONCVIZ-001,ONCVIZ-001-07-0361,TREATMENT,OVRLRESP,Overall Response per RECIST 1.1,CYCLE 4 DAY 1,4,2024-04-06,168,CR,1,Y
ONCVIZ-001,ONCVIZ-001-07-0361,TREATMENT,OVRLRESP,Overall Response per RECIST 1.1,CYCLE 5 DAY 1,5,2024-05-18,210,CR,1,Y
ONCVIZ-001,ONCVIZ-001-07-0361,TREATMENT,OVRLRESP,Overall Response per RECIST 1.1,CYCLE 6 DAY 1,6,2024-06-29,252,CR,1,Y
ONCVIZ-001,ONCVIZ-001-07-0361,TREATMENT,OVRLRESP,Overall Response per RECIST 1.1,CYCLE 7 DAY 1,7,2024-08-10,294,CR,1,Y
ONCVIZ-001,ONCVIZ-001-07-0361,TREATMENT,OVRLRESP,Overall Response per RECIST 1.1,CYCLE 8 DAY 1,8,2024-09-21,336,PD,4,Y
ONCVIZ-001,ONCVIZ-001-18-0362,CONTROL,OVRLRESP,Overall Response per RECIST 1.1,CYCLE 1 DAY 1,1,2023-03-04,42,PD,4,Y
ONCVIZ-001,ONCVIZ-001-12-0363,CONTROL,OVRLRESP,Overall Response per RECIST 1.1,CYCLE 1 DAY 1,1,2023-12-10,42,PD,4,Y
ONCVIZ-001,ONCVIZ-001-02-0364,CONTROL,OVRLRESP,Overall Response per RECIST 1.1,CYCLE 1 DAY 1,1,2023-06-13,42,SD,3,Y
ONCVIZ-001,ONCVIZ-001-02-0364,CONTROL,OVRLRESP,Overall Response per RECIST 1.1,CYCLE 2 DAY 1,2,2023-07-25,84,PD,4,Y
ONCVIZ-001,ONCVIZ-001-03-0365,CONTROL,OVRLRESP,Overall Response per RECIST 1.1,CYCLE 1 DAY 1,1,2023-07-30,42,PD,4,Y
ONCVIZ-001,ONCVIZ-001-16-0366,TREATMENT,OVRLRESP,Overall Response per RECIST 1.1,CYCLE 1 DAY 1,1,2023-10-20,42,PD,4,Y
ONCVIZ-001,ONCVIZ-001-01-0367,TREATMENT,OVRLRESP,Overall Response per RECIST 1.1,CYCLE 1 DAY 1,1,2022-11-20,42,PR,2,Y
ONCVIZ-001,ONCVIZ-001-01-0367,TREATMENT,OVRLRESP,Overall Response per RECIST 1.1,CYCLE 2 DAY 1,2,2023-01-01,84,SD,3,Y
ONCVIZ-001,ONCVIZ-001-01-0367,TREATMENT,OVRLRESP,Overall Response per RECIST 1.1,CYCLE 3 DAY 1,3,2023-02-12,126,SD,3,Y
ONCVIZ-001,ONCVIZ-001-01-0367,TREATMENT,OVRLRESP,Overall Response per RECIST 1.1,CYCLE 4 DAY 1,4,2023-03-26,168,SD,3,Y
ONCVIZ-001,ONCVIZ-001-01-0367,TREATMENT,OVRLRESP,Overall Response per RECIST 1.1,CYCLE 5 DAY 1,5,2023-05-07,210,PR,2,Y
ONCVIZ-001,ONCVIZ-001-01-0367,TREATMENT,OVRLRESP,Overall Response per RECIST 1.1,CYCLE 6 DAY 1,6,2023-06-18,252,PR,2,Y
ONCVIZ-001,ONCVIZ-001-01-0367,TREATMENT,OVRLRESP,Overall Response per RECIST 1.1,CYCLE 7 DAY 1,7,2023-07-30,294,PR,2,Y
ONCVIZ-001,ONCVIZ-001-01-0367,TREATMENT,OVRLRESP,Overall Response per RECIST 1.1,CYCLE 8 DAY 1,8,2023-09-10,336,PD,4,Y
ONCVIZ-001,ONCVIZ-001-06-0368,TREATMENT,OVRLRESP,Overall Response per RECIST 1.1,CYCLE 1 DAY 1,1,2023-02-12,42,SD,3,Y
ONCVIZ-001,ONCVIZ-001-06-0368,TREATMENT,OVRLRESP,Overall Response per RECIST 1.1,CYCLE 2 DAY 1,2,2023-03-26,84,SD,3,Y
ONCVIZ-001,ONCVIZ-001-06-0368,TREATMENT,OVRLRESP,Overall Response per RECIST 1.1,CYCLE 3 DAY 1,3,2023-05-07,126,SD,3,Y
ONCVIZ-001,ONCVIZ-001-06-0368,TREATMENT,OVRLRESP,Overall Response per RECIST 1.1,CYCLE 4 DAY 1,4,2023-06-18,168,PR,2,Y
ONCVIZ-001,ONCVIZ-001-06-0368,TREATMENT,OVRLRESP,Overall Response per RECIST 1.1,CYCLE 5 DAY 1,5,2023-07-30,210,SD,3,Y
ONCVIZ-001,ONCVIZ-001-06-0368,TREATMENT,OVRLRESP,Overall Response per RECIST 1.1,CYCLE 6 DAY 1,6,2023-09-10,252,SD,3,Y
ONCVIZ-001,ONCVIZ-001-06-0368,TREATMENT,OVRLRESP,Overall Response per RECIST 1.1,CYCLE 7 DAY 1,7,2023-10-22,294,SD,3,Y
ONCVIZ-001,ONCVIZ-001-06-0368,TREATMENT,OVRLRESP,Overall Response per RECIST 1.1,CYCLE 8 DAY 1,8,2023-12-03,336,PD,4,Y
ONCVIZ-001,ONCVIZ-001-07-0369,CONTROL,OVRLRESP,Overall Response per RECIST 1.1,CYCLE 1 DAY 1,1,2023-06-09,42,SD,3,Y
ONCVIZ-001,ONCVIZ-001-07-0369,CONTROL,OVRLRESP,Overall Response per RECIST 1.1,CYCLE 2 DAY 1,2,2023-07-21,84,PD,4,Y
ONCVIZ-001,ONCVIZ-001-16-0370,CONTROL,OVRLRESP,Overall Response per RECIST 1.1,CYCLE 1 DAY 1,1,2023-06-17,42,PR,2,Y
ONCVIZ-001,ONCVIZ-001-16-0370,CONTROL,OVRLRESP,Overall Response per RECIST 1.1,CYCLE 2 DAY 1,2,2023-07-29,84,PR,2,Y
ONCVIZ-001,ONCVIZ-001-16-0370,CONTROL,OVRLRESP,Overall Response per RECIST 1.1,CYCLE 3 DAY 1,3,2023-09-09,126,PD,4,Y
ONCVIZ-001,ONCVIZ-001-13-0371,CONTROL,OVRLRESP,Overall Response per RECIST 1.1,CYCLE 1 DAY 1,1,2023-11-29,42,PR,2,Y
ONCVIZ-001,ONCVIZ-001-13-0371,CONTROL,OVRLRESP,Overall Response per RECIST 1.1,CYCLE 2 DAY 1,2,2024-01-10,84,PR,2,Y
ONCVIZ-001,ONCVIZ-001-13-0371,CONTROL,OVRLRESP,Overall Response per RECIST 1.1,CYCLE 3 DAY 1,3,2024-02-21,126,PR,2,Y
ONCVIZ-001,ONCVIZ-001-13-0371,CONTROL,OVRLRESP,Overall Response per RECIST 1.1,CYCLE 4 DAY 1,4,2024-04-03,168,PR,2,Y
ONCVIZ-001,ONCVIZ-001-13-0371,CONTROL,OVRLRESP,Overall Response per RECIST 1.1,CYCLE 5 DAY 1,5,2024-05-15,210,PR,2,Y
ONCVIZ-001,ONCVIZ-001-13-0371,CONTROL,OVRLRESP,Overall Response per RECIST 1.1,CYCLE 6 DAY 1,6,2024-06-26,252,PR,2,Y
ONCVIZ-001,ONCVIZ-001-13-0371,CONTROL,OVRLRESP,Overall Response per RECIST 1.1,CYCLE 7 DAY 1,7,2024-08-07,294,CR,1,Y
ONCVIZ-001,ONCVIZ-001-13-0371,CONTROL,OVRLRESP,Overall Response per RECIST 1.1,CYCLE 8 DAY 1,8,2024-09-18,336,CR,1,Y
ONCVIZ-001,ONCVIZ-001-13-0371,CONTROL,OVRLRESP,Overall Response per RECIST 1.1,CYCLE 9 DAY 1,9,2024-10-30,378,CR,1,Y
ONCVIZ-001,ONCVIZ-001-13-0371,CONTROL,OVRLRESP,Overall Response per RECIST 1.1,CYCLE 10 DAY 1,10,2024-12-11,420,CR,1,Y
ONCVIZ-001,ONCVIZ-001-13-0371,CONTROL,OVRLRESP,Overall Response per RECIST 1.1,CYCLE 11 DAY 1,11,2025-01-22,462,CR,1,Y
ONCVIZ-001,ONCVIZ-001-13-0371,CONTROL,OVRLRESP,Overall Response per RECIST 1.1,CYCLE 12 DAY 1,12,2025-03-05,504,CR,1,Y
ONCVIZ-001,ONCVIZ-001-13-0371,CONTROL,OVRLRESP,Overall Response per RECIST 1.1,CYCLE 13 DAY 1,13,2025-04-16,546,PD,4,Y
ONCVIZ-001,ONCVIZ-001-03-0372,CONTROL,OVRLRESP,Overall Response per RECIST 1.1,CYCLE 1 DAY 1,1,2023-01-15,42,SD,3,Y
ONCVIZ-001,ONCVIZ-001-03-0372,CONTROL,OVRLRESP,Overall Response per RECIST 1.1,CYCLE 2 DAY 1,2,2023-02-26,84,PD,4,Y
ONCVIZ-001,ONCVIZ-001-19-0373,TREATMENT,OVRLRESP,Overall Response per RECIST 1.1,CYCLE 1 DAY 1,1,2023-07-22,42,PD,4,Y
ONCVIZ-001,ONCVIZ-001-10-0374,TREATMENT,OVRLRESP,Overall Response per RECIST 1.1,CYCLE 1 DAY 1,1,2022-12-30,42,PD,4,Y
ONCVIZ-001,ONCVIZ-001-05-0375,TREATMENT,OVRLRESP,Overall Response per RECIST 1.1,CYCLE 1 DAY 1,1,2022-12-24,42,SD,3,Y
ONCVIZ-001,ONCVIZ-001-07-0376,TREATMENT,OVRLRESP,Overall Response per RECIST 1.1,CYCLE 1 DAY 1,1,2023-06-27,42,PD,4,Y
ONCVIZ-001,ONCVIZ-001-14-0377,TREATMENT,OVRLRESP,Overall Response per RECIST 1.1,CYCLE 1 DAY 1,1,2023-09-15,42,PR,2,Y
ONCVIZ-001,ONCVIZ-001-14-0377,TREATMENT,OVRLRESP,Overall Response per RECIST 1.1,CYCLE 2 DAY 1,2,2023-10-27,84,CR,1,Y
ONCVIZ-001,ONCVIZ-001-14-0377,TREATMENT,OVRLRESP,Overall Response per RECIST 1.1,CYCLE 3 DAY 1,3,2023-12-08,126,CR,1,Y
ONCVIZ-001,ONCVIZ-001-14-0377,TREATMENT,OVRLRESP,Overall Response per RECIST 1.1,CYCLE 4 DAY 1,4,2024-01-19,168,CR,1,Y
ONCVIZ-001,ONCVIZ-001-14-0377,TREATMENT,OVRLRESP,Overall Response per RECIST 1.1,CYCLE 5 DAY 1,5,2024-03-01,210,PR,2,Y
ONCVIZ-001,ONCVIZ-001-14-0377,TREATMENT,OVRLRESP,Overall Response per RECIST 1.1,CYCLE 6 DAY 1,6,2024-04-12,252,PR,2,Y
ONCVIZ-001,ONCVIZ-001-14-0377,TREATMENT,OVRLRESP,Overall Response per RECIST 1.1,CYCLE 7 DAY 1,7,2024-05-24,294,PR,2,Y
ONCVIZ-001,ONCVIZ-001-14-0377,TREATMENT,OVRLRESP,Overall Response per RECIST 1.1,CYCLE 8 DAY 1,8,2024-07-05,336,SD,3,Y
ONCVIZ-001,ONCVIZ-001-14-0377,TREATMENT,OVRLRESP,Overall Response per RECIST 1.1,CYCLE 9 DAY 1,9,2024-08-16,378,SD,3,Y
ONCVIZ-001,ONCVIZ-001-14-0377,TREATMENT,OVRLRESP,Overall Response per RECIST 1.1,CYCLE 10 DAY 1,10,2024-09-27,420,SD,3,Y
ONCVIZ-001,ONCVIZ-001-14-0377,TREATMENT,OVRLRESP,Overall Response per RECIST 1.1,CYCLE 11 DAY 1,11,2024-11-08,462,PD,4,Y
ONCVIZ-001,ONCVIZ-001-08-0378,TREATMENT,OVRLRESP,Overall Response per RECIST 1.1,CYCLE 1 DAY 1,1,2023-07-03,42,SD,3,Y
ONCVIZ-001,ONCVIZ-001-08-0378,TREATMENT,OVRLRESP,Overall Response per RECIST 1.1,CYCLE 2 DAY 1,2,2023-08-14,84,SD,3,Y
ONCVIZ-001,ONCVIZ-001-08-0378,TREATMENT,OVRLRESP,Overall Response per RECIST 1.1,CYCLE 3 DAY 1,3,2023-09-25,126,PD,4,Y
ONCVIZ-001,ONCVIZ-001-14-0379,CONTROL,OVRLRESP,Overall Response per RECIST 1.1,CYCLE 1 DAY 1,1,2023-06-07,42,PD,4,Y
ONCVIZ-001,ONCVIZ-001-20-0380,TREATMENT,OVRLRESP,Overall Response per RECIST 1.1,CYCLE 1 DAY 1,1,2023-05-12,42,SD,3,Y
ONCVIZ-001,ONCVIZ-001-20-0380,TREATMENT,OVRLRESP,Overall Response per RECIST 1.1,CYCLE 2 DAY 1,2,2023-06-23,84,SD,3,Y
ONCVIZ-001,ONCVIZ-001-20-0380,TREATMENT,OVRLRESP,Overall Response per RECIST 1.1,CYCLE 3 DAY 1,3,2023-08-04,126,PD,4,Y
ONCVIZ-001,ONCVIZ-001-20-0381,CONTROL,OVRLRESP,Overall Response per RECIST 1.1,CYCLE 1 DAY 1,1,2023-03-01,42,SD,3,Y
ONCVIZ-001,ONCVIZ-001-20-0381,CONTROL,OVRLRESP,Overall Response per RECIST 1.1,CYCLE 2 DAY 1,2,2023-04-12,84,SD,3,Y
ONCVIZ-001,ONCVIZ-001-20-0381,CONTROL,OVRLRESP,Overall Response per RECIST 1.1,CYCLE 3 DAY 1,3,2023-05-24,126,SD,3,Y
ONCVIZ-001,ONCVIZ-001-20-0381,CONTROL,OVRLRESP,Overall Response per RECIST 1.1,CYCLE 4 DAY 1,4,2023-07-05,168,PD,4,Y
ONCVIZ-001,ONCVIZ-001-15-0382,TREATMENT,OVRLRESP,Overall Response per RECIST 1.1,CYCLE 1 DAY 1,1,2023-03-22,42,SD,3,Y
ONCVIZ-001,ONCVIZ-001-15-0382,TREATMENT,OVRLRESP,Overall Response per RECIST 1.1,CYCLE 2 DAY 1,2,2023-05-03,84,PR,2,Y
ONCVIZ-001,ONCVIZ-001-15-0382,TREATMENT,OVRLRESP,Overall Response per RECIST 1.1,CYCLE 3 DAY 1,3,2023-06-14,126,PD,4,Y
ONCVIZ-001,ONCVIZ-001-04-0383,CONTROL,OVRLRESP,Overall Response per RECIST 1.1,CYCLE 1 DAY 1,1,2023-03-28,42,SD,3,Y
ONCVIZ-001,ONCVIZ-001-04-0383,CONTROL,OVRLRESP,Overall Response per RECIST 1.1,CYCLE 2 DAY 1,2,2023-05-09,84,PD,4,Y
ONCVIZ-001,ONCVIZ-001-15-0384,TREATMENT,OVRLRESP,Overall Response per RECIST 1.1,CYCLE 1 DAY 1,1,2023-01-12,42,PR,2,Y
ONCVIZ-001,ONCVIZ-001-13-0385,TREATMENT,OVRLRESP,Overall Response per RECIST 1.1,CYCLE 1 DAY 1,1,2023-07-30,42,CR,1,Y
ONCVIZ-001,ONCVIZ-001-13-0385,TREATMENT,OVRLRESP,Overall Response per RECIST 1.1,CYCLE 2 DAY 1,2,2023-09-10,84,CR,1,Y
ONCVIZ-001,ONCVIZ-001-13-0385,TREATMENT,OVRLRESP,Overall Response per RECIST 1.1,CYCLE 3 DAY 1,3,2023-10-22,126,SD,3,Y
ONCVIZ-001,ONCVIZ-001-13-0385,TREATMENT,OVRLRESP,Overall Response per RECIST 1.1,CYCLE 4 DAY 1,4,2023-12-03,168,SD,3,Y
ONCVIZ-001,ONCVIZ-001-13-0385,TREATMENT,OVRLRESP,Overall Response per RECIST 1.1,CYCLE 5 DAY 1,5,2024-01-14,210,PR,2,Y
ONCVIZ-001,ONCVIZ-001-13-0385,TREATMENT,OVRLRESP,Overall Response per RECIST 1.1,CYCLE 6 DAY 1,6,2024-02-25,252,PR,2,Y
ONCVIZ-001,ONCVIZ-001-13-0385,TREATMENT,OVRLRESP,Overall Response per RECIST 1.1,CYCLE 7 DAY 1,7,2024-04-07,294,PR,2,Y
ONCVIZ-001,ONCVIZ-001-13-0385,TREATMENT,OVRLRESP,Overall Response per RECIST 1.1,CYCLE 8 DAY 1,8,2024-05-19,336,PR,2,Y
ONCVIZ-001,ONCVIZ-001-13-0385,TREATMENT,OVRLRESP,Overall Response per RECIST 1.1,CYCLE 9 DAY 1,9,2024-06-30,378,PR,2,Y
ONCVIZ-001,ONCVIZ-001-13-0385,TREATMENT,OVRLRESP,Overall Response per RECIST 1.1,CYCLE 10 DAY 1,10,2024-08-11,420,PR,2,Y
ONCVIZ-001,ONCVIZ-001-13-0385,TREATMENT,OVRLRESP,Overall Response per RECIST 1.1,CYCLE 11 DAY 1,11,2024-09-22,462,PR,2,Y
ONCVIZ-001,ONCVIZ-001-13-0385,TREATMENT,OVRLRESP,Overall Response per RECIST 1.1,CYCLE 12 DAY 1,12,2024-11-03,504,PR,2,Y
ONCVIZ-001,ONCVIZ-001-13-0385,TREATMENT,OVRLRESP,Overall Response per RECIST 1.1,CYCLE 13 DAY 1,13,2024-12-15,546,SD,3,Y
ONCVIZ-001,ONCVIZ-001-13-0385,TREATMENT,OVRLRESP,Overall Response per RECIST 1.1,CYCLE 14 DAY 1,14,2025-01-26,588,PR,2,Y
ONCVIZ-001,ONCVIZ-001-13-0385,TREATMENT,OVRLRESP,Overall Response per RECIST 1.1,CYCLE 15 DAY 1,15,2025-03-09,630,PR,2,Y
ONCVIZ-001,ONCVIZ-001-13-0385,TREATMENT,OVRLRESP,Overall Response per RECIST 1.1,CYCLE 16 DAY 1,16,2025-04-20,672,PR,2,Y
ONCVIZ-001,ONCVIZ-001-13-0385,TREATMENT,OVRLRESP,Overall Response per RECIST 1.1,CYCLE 17 DAY 1,17,2025-06-01,714,PR,2,Y
ONCVIZ-001,ONCVIZ-001-13-0385,TREATMENT,OVRLRESP,Overall Response per RECIST 1.1,CYCLE 18 DAY 1,18,2025-07-13,756,SD,3,Y
ONCVIZ-001,ONCVIZ-001-13-0385,TREATMENT,OVRLRESP,Overall Response per RECIST 1.1,CYCLE 19 DAY 1,19,2025-08-24,798,SD,3,Y
ONCVIZ-001,ONCVIZ-001-13-0385,TREATMENT,OVRLRESP,Overall Response per RECIST 1.1,CYCLE 20 DAY 1,20,2025-10-05,840,CR,1,Y
ONCVIZ-001,ONCVIZ-001-13-0385,TREATMENT,OVRLRESP,Overall Response per RECIST 1.1,CYCLE 21 DAY 1,21,2025-11-16,882,CR,1,Y
ONCVIZ-001,ONCVIZ-001-13-0385,TREATMENT,OVRLRESP,Overall Response per RECIST 1.1,CYCLE 22 DAY 1,22,2025-12-28,924,CR,1,Y
ONCVIZ-001,ONCVIZ-001-13-0385,TREATMENT,OVRLRESP,Overall Response per RECIST 1.1,CYCLE 23 DAY 1,23,2026-02-08,966,CR,1,Y
ONCVIZ-001,ONCVIZ-001-01-0386,CONTROL,OVRLRESP,Overall Response per RECIST 1.1,CYCLE 1 DAY 1,1,2022-11-13,42,PD,4,Y
ONCVIZ-001,ONCVIZ-001-04-0387,TREATMENT,OVRLRESP,Overall Response per RECIST 1.1,CYCLE 1 DAY 1,1,2022-10-22,42,PD,4,Y
ONCVIZ-001,ONCVIZ-001-17-0388,TREATMENT,OVRLRESP,Overall Response per RECIST 1.1,CYCLE 1 DAY 1,1,2023-01-06,42,SD,3,Y
ONCVIZ-001,ONCVIZ-001-17-0388,TREATMENT,OVRLRESP,Overall Response per RECIST 1.1,CYCLE 2 DAY 1,2,2023-02-17,84,PD,4,Y
ONCVIZ-001,ONCVIZ-001-18-0389,TREATMENT,OVRLRESP,Overall Response per RECIST 1.1,CYCLE 1 DAY 1,1,2023-03-16,42,CR,1,Y
ONCVIZ-001,ONCVIZ-001-18-0389,TREATMENT,OVRLRESP,Overall Response per RECIST 1.1,CYCLE 2 DAY 1,2,2023-04-27,84,CR,1,Y
ONCVIZ-001,ONCVIZ-001-18-0389,TREATMENT,OVRLRESP,Overall Response per RECIST 1.1,CYCLE 3 DAY 1,3,2023-06-08,126,CR,1,Y
ONCVIZ-001,ONCVIZ-001-18-0389,TREATMENT,OVRLRESP,Overall Response per RECIST 1.1,CYCLE 4 DAY 1,4,2023-07-20,168,CR,1,Y
ONCVIZ-001,ONCVIZ-001-18-0389,TREATMENT,OVRLRESP,Overall Response per RECIST 1.1,CYCLE 5 DAY 1,5,2023-08-31,210,CR,1,Y
ONCVIZ-001,ONCVIZ-001-18-0389,TREATMENT,OVRLRESP,Overall Response per RECIST 1.1,CYCLE 6 DAY 1,6,2023-10-12,252,CR,1,Y
ONCVIZ-001,ONCVIZ-001-18-0389,TREATMENT,OVRLRESP,Overall Response per RECIST 1.1,CYCLE 7 DAY 1,7,2023-11-23,294,CR,1,Y
ONCVIZ-001,ONCVIZ-001-18-0389,TREATMENT,OVRLRESP,Overall Response per RECIST 1.1,CYCLE 8 DAY 1,8,2024-01-04,336,CR,1,Y
ONCVIZ-001,ONCVIZ-001-18-0389,TREATMENT,OVRLRESP,Overall Response per RECIST 1.1,CYCLE 9 DAY 1,9,2024-02-15,378,CR,1,Y
ONCVIZ-001,ONCVIZ-001-18-0389,TREATMENT,OVRLRESP,Overall Response per RECIST 1.1,CYCLE 10 DAY 1,10,2024-03-28,420,CR,1,Y
ONCVIZ-001,ONCVIZ-001-18-0389,TREATMENT,OVRLRESP,Overall Response per RECIST 1.1,CYCLE 11 DAY 1,11,2024-05-09,462,CR,1,Y
ONCVIZ-001,ONCVIZ-001-18-0389,TREATMENT,OVRLRESP,Overall Response per RECIST 1.1,CYCLE 12 DAY 1,12,2024-06-20,504,CR,1,Y
ONCVIZ-001,ONCVIZ-001-18-0389,TREATMENT,OVRLRESP,Overall Response per RECIST 1.1,CYCLE 13 DAY 1,13,2024-08-01,546,CR,1,Y
ONCVIZ-001,ONCVIZ-001-18-0389,TREATMENT,OVRLRESP,Overall Response per RECIST 1.1,CYCLE 14 DAY 1,14,2024-09-12,588,CR,1,Y
ONCVIZ-001,ONCVIZ-001-18-0389,TREATMENT,OVRLRESP,Overall Response per RECIST 1.1,CYCLE 15 DAY 1,15,2024-10-24,630,CR,1,Y
ONCVIZ-001,ONCVIZ-001-18-0389,TREATMENT,OVRLRESP,Overall Response per RECIST 1.1,CYCLE 16 DAY 1,16,2024-12-05,672,PR,2,Y
ONCVIZ-001,ONCVIZ-001-18-0389,TREATMENT,OVRLRESP,Overall Response per RECIST 1.1,CYCLE 17 DAY 1,17,2025-01-16,714,PR,2,Y
ONCVIZ-001,ONCVIZ-001-18-0389,TREATMENT,OVRLRESP,Overall Response per RECIST 1.1,CYCLE 18 DAY 1,18,2025-02-27,756,PR,2,Y
ONCVIZ-001,ONCVIZ-001-18-0389,TREATMENT,OVRLRESP,Overall Response per RECIST 1.1,CYCLE 19 DAY 1,19,2025-04-10,798,SD,3,Y
ONCVIZ-001,ONCVIZ-001-18-0389,TREATMENT,OVRLRESP,Overall Response per RECIST 1.1,CYCLE 20 DAY 1,20,2025-05-22,840,SD,3,Y
ONCVIZ-001,ONCVIZ-001-13-0390,TREATMENT,OVRLRESP,Overall Response per RECIST 1.1,CYCLE 1 DAY 1,1,2023-10-15,42,PR,2,Y
ONCVIZ-001,ONCVIZ-001-13-0390,TREATMENT,OVRLRESP,Overall Response per RECIST 1.1,CYCLE 2 DAY 1,2,2023-11-26,84,PR,2,Y
ONCVIZ-001,ONCVIZ-001-13-0390,TREATMENT,OVRLRESP,Overall Response per RECIST 1.1,CYCLE 3 DAY 1,3,2024-01-07,126,PR,2,Y
ONCVIZ-001,ONCVIZ-001-13-0390,TREATMENT,OVRLRESP,Overall Response per RECIST 1.1,CYCLE 4 DAY 1,4,2024-02-18,168,PD,4,Y
ONCVIZ-001,ONCVIZ-001-16-0391,TREATMENT,OVRLRESP,Overall Response per RECIST 1.1,CYCLE 1 DAY 1,1,2022-10-06,42,PR,2,Y
ONCVIZ-001,ONCVIZ-001-16-0391,TREATMENT,OVRLRESP,Overall Response per RECIST 1.1,CYCLE 2 DAY 1,2,2022-11-17,84,PR,2,Y
ONCVIZ-001,ONCVIZ-001-16-0391,TREATMENT,OVRLRESP,Overall Response per RECIST 1.1,CYCLE 3 DAY 1,3,2022-12-29,126,PR,2,Y
ONCVIZ-001,ONCVIZ-001-16-0391,TREATMENT,OVRLRESP,Overall Response per RECIST 1.1,CYCLE 4 DAY 1,4,2023-02-09,168,PR,2,Y
ONCVIZ-001,ONCVIZ-001-16-0391,TREATMENT,OVRLRESP,Overall Response per RECIST 1.1,CYCLE 5 DAY 1,5,2023-03-23,210,PR,2,Y
ONCVIZ-001,ONCVIZ-001-16-0391,TREATMENT,OVRLRESP,Overall Response per RECIST 1.1,CYCLE 6 DAY 1,6,2023-05-04,252,PR,2,Y
ONCVIZ-001,ONCVIZ-001-16-0391,TREATMENT,OVRLRESP,Overall Response per RECIST 1.1,CYCLE 7 DAY 1,7,2023-06-15,294,PR,2,Y
ONCVIZ-001,ONCVIZ-001-16-0391,TREATMENT,OVRLRESP,Overall Response per RECIST 1.1,CYCLE 8 DAY 1,8,2023-07-27,336,PR,2,Y
ONCVIZ-001,ONCVIZ-001-16-0391,TREATMENT,OVRLRESP,Overall Response per RECIST 1.1,CYCLE 9 DAY 1,9,2023-09-07,378,PR,2,Y
ONCVIZ-001,ONCVIZ-001-16-0391,TREATMENT,OVRLRESP,Overall Response per RECIST 1.1,CYCLE 10 DAY 1,10,2023-10-19,420,CR,1,Y
ONCVIZ-001,ONCVIZ-001-16-0391,TREATMENT,OVRLRESP,Overall Response per RECIST 1.1,CYCLE 11 DAY 1,11,2023-11-30,462,PD,4,Y
ONCVIZ-001,ONCVIZ-001-02-0392,TREATMENT,OVRLRESP,Overall Response per RECIST 1.1,CYCLE 1 DAY 1,1,2023-05-03,42,SD,3,Y
ONCVIZ-001,ONCVIZ-001-01-0393,TREATMENT,OVRLRESP,Overall Response per RECIST 1.1,CYCLE 1 DAY 1,1,2023-11-27,42,SD,3,Y
ONCVIZ-001,ONCVIZ-001-12-0394,TREATMENT,OVRLRESP,Overall Response per RECIST 1.1,CYCLE 1 DAY 1,1,2023-10-30,42,SD,3,Y
ONCVIZ-001,ONCVIZ-001-12-0394,TREATMENT,OVRLRESP,Overall Response per RECIST 1.1,CYCLE 2 DAY 1,2,2023-12-11,84,SD,3,Y
ONCVIZ-001,ONCVIZ-001-12-0394,TREATMENT,OVRLRESP,Overall Response per RECIST 1.1,CYCLE 3 DAY 1,3,2024-01-22,126,SD,3,Y
ONCVIZ-001,ONCVIZ-001-12-0394,TREATMENT,OVRLRESP,Overall Response per RECIST 1.1,CYCLE 4 DAY 1,4,2024-03-04,168,PD,4,Y
ONCVIZ-001,ONCVIZ-001-07-0395,TREATMENT,OVRLRESP,Overall Response per RECIST 1.1,CYCLE 1 DAY 1,1,2023-09-28,42,SD,3,Y
ONCVIZ-001,ONCVIZ-001-07-0395,TREATMENT,OVRLRESP,Overall Response per RECIST 1.1,CYCLE 2 DAY 1,2,2023-11-09,84,PD,4,Y
ONCVIZ-001,ONCVIZ-001-19-0396,CONTROL,OVRLRESP,Overall Response per RECIST 1.1,CYCLE 1 DAY 1,1,2023-07-13,42,PD,4,Y
ONCVIZ-001,ONCVIZ-001-11-0397,TREATMENT,OVRLRESP,Overall Response per RECIST 1.1,CYCLE 1 DAY 1,1,2022-11-28,42,PD,4,Y
ONCVIZ-001,ONCVIZ-001-19-0398,TREATMENT,OVRLRESP,Overall Response per RECIST 1.1,CYCLE 1 DAY 1,1,2023-09-13,42,CR,1,Y
ONCVIZ-001,ONCVIZ-001-19-0398,TREATMENT,OVRLRESP,Overall Response per RECIST 1.1,CYCLE 2 DAY 1,2,2023-10-25,84,CR,1,Y
ONCVIZ-001,ONCVIZ-001-19-0398,TREATMENT,OVRLRESP,Overall Response per RECIST 1.1,CYCLE 3 DAY 1,3,2023-12-06,126,CR,1,Y
ONCVIZ-001,ONCVIZ-001-19-0398,TREATMENT,OVRLRESP,Overall Response per RECIST 1.1,CYCLE 4 DAY 1,4,2024-01-17,168,CR,1,Y
ONCVIZ-001,ONCVIZ-001-19-0398,TREATMENT,OVRLRESP,Overall Response per RECIST 1.1,CYCLE 5 DAY 1,5,2024-02-28,210,CR,1,Y
ONCVIZ-001,ONCVIZ-001-19-0398,TREATMENT,OVRLRESP,Overall Response per RECIST 1.1,CYCLE 6 DAY 1,6,2024-04-10,252,CR,1,Y
ONCVIZ-001,ONCVIZ-001-19-0398,TREATMENT,OVRLRESP,Overall Response per RECIST 1.1,CYCLE 7 DAY 1,7,2024-05-22,294,PR,2,Y
ONCVIZ-001,ONCVIZ-001-19-0398,TREATMENT,OVRLRESP,Overall Response per RECIST 1.1,CYCLE 8 DAY 1,8,2024-07-03,336,PR,2,Y
ONCVIZ-001,ONCVIZ-001-19-0398,TREATMENT,OVRLRESP,Overall Response per RECIST 1.1,CYCLE 9 DAY 1,9,2024-08-14,378,PR,2,Y
ONCVIZ-001,ONCVIZ-001-19-0398,TREATMENT,OVRLRESP,Overall Response per RECIST 1.1,CYCLE 10 DAY 1,10,2024-09-25,420,PR,2,Y
ONCVIZ-001,ONCVIZ-001-19-0398,TREATMENT,OVRLRESP,Overall Response per RECIST 1.1,CYCLE 11 DAY 1,11,2024-11-06,462,SD,3,Y
ONCVIZ-001,ONCVIZ-001-19-0398,TREATMENT,OVRLRESP,Overall Response per RECIST 1.1,CYCLE 12 DAY 1,12,2024-12-18,504,SD,3,Y
ONCVIZ-001,ONCVIZ-001-19-0398,TREATMENT,OVRLRESP,Overall Response per RECIST 1.1,CYCLE 13 DAY 1,13,2025-01-29,546,SD,3,Y
ONCVIZ-001,ONCVIZ-001-19-0398,TREATMENT,OVRLRESP,Overall Response per RECIST 1.1,CYCLE 14 DAY 1,14,2025-03-12,588,SD,3,Y
ONCVIZ-001,ONCVIZ-001-19-0398,TREATMENT,OVRLRESP,Overall Response per RECIST 1.1,CYCLE 15 DAY 1,15,2025-04-23,630,SD,3,Y
ONCVIZ-001,ONCVIZ-001-19-0398,TREATMENT,OVRLRESP,Overall Response per RECIST 1.1,CYCLE 16 DAY 1,16,2025-06-04,672,SD,3,Y
ONCVIZ-001,ONCVIZ-001-19-0398,TREATMENT,OVRLRESP,Overall Response per RECIST 1.1,CYCLE 17 DAY 1,17,2025-07-16,714,PD,4,Y
ONCVIZ-001,ONCVIZ-001-06-0399,TREATMENT,OVRLRESP,Overall Response per RECIST 1.1,CYCLE 1 DAY 1,1,2023-12-19,42,PD,4,Y
ONCVIZ-001,ONCVIZ-001-16-0400,TREATMENT,OVRLRESP,Overall Response per RECIST 1.1,CYCLE 1 DAY 1,1,2023-10-27,42,SD,3,Y
ONCVIZ-001,ONCVIZ-001-16-0400,TREATMENT,OVRLRESP,Overall Response per RECIST 1.1,CYCLE 2 DAY 1,2,2023-12-08,84,SD,3,Y
ONCVIZ-001,ONCVIZ-001-16-0400,TREATMENT,OVRLRESP,Overall Response per RECIST 1.1,CYCLE 3 DAY 1,3,2024-01-19,126,PD,4,Y
